VPID	SESSION_ID	DATE	BLOCK	TRIAL	PX0	PY0	PX1	PY1	PX2	PY2	PX3	PY3	PX4	PY4	PX5	PY5	PX6	PY6	PX7	PY7	PX8	PY8	PX9	PY9	PX10	PY10	PX11	PY11	PX12	PY12	PX13	PY13	PX14	PY14	PX15	PY15	PX16	PY16	PX17	PY17	PX18	PY18	PX19	PY19	PX20	PY20	PX21	PY21	PX22	PY22	PX23	PY23	PX24	PY24	AX	AY	AD	RT1	RT2	Resp1	Resp2	Corr1	Corr2
20100155	1	4.12.2018	0	0	1	2	3	1	2	3	0	1	-999	-999	-999	-999	-999	-999	-999	-999	-999	-999	-999	-999	-999	-999	-999	-999	-999	-999	-999	-999	-999	-999	-999	-999	-999	-999	-999	-999	-999	-999	-999	-999	-999	-999	-999	-999	-999	-999	-999	-999	-999	-999	3	1	2	3839	-999	0	-999	0	-999	
20100155	1	4.12.2018	0	1	3	2	1	2	2	0	2	1	-999	-999	-999	-999	-999	-999	-999	-999	-999	-999	-999	-999	-999	-999	-999	-999	-999	-999	-999	-999	-999	-999	-999	-999	-999	-999	-999	-999	-999	-999	-999	-999	-999	-999	-999	-999	-999	-999	-999	-999	-999	-999	1	2	2	2811	-999	1	-999	1	0	
20100155	1	4.12.2018	0	2	2	1	0	0	1	2	3	0	2	0	1	3	3	3	-999	-999	-999	-999	-999	-999	-999	-999	-999	-999	-999	-999	-999	-999	-999	-999	-999	-999	-999	-999	-999	-999	-999	-999	-999	-999	-999	-999	-999	-999	-999	-999	-999	-999	-999	-999	3	3	3	2172	-999	1	-999	1	0	
20100155	1	4.12.2018	0	3	0	3	3	2	3	3	1	3	0	2	2	1	0	0	-999	-999	-999	-999	-999	-999	-999	-999	-999	-999	-999	-999	-999	-999	-999	-999	-999	-999	-999	-999	-999	-999	-999	-999	-999	-999	-999	-999	-999	-999	-999	-999	-999	-999	-999	-999	0	2	7	3687	-999	1	-999	1	0	
20100155	1	4.12.2018	1	0	1	1	2	2	2	1	2	3	-999	-999	-999	-999	-999	-999	-999	-999	-999	-999	-999	-999	-999	-999	-999	-999	-999	-999	-999	-999	-999	-999	-999	-999	-999	-999	-999	-999	-999	-999	-999	-999	-999	-999	-999	-999	-999	-999	-999	-999	-999	-999	2	2	2	1415	648	1	1	1	1	
20100155	1	4.12.2018	1	1	2	3	1	1	3	2	0	3	-999	-999	-999	-999	-999	-999	-999	-999	-999	-999	-999	-999	-999	-999	-999	-999	-999	-999	-999	-999	-999	-999	-999	-999	-999	-999	-999	-999	-999	-999	-999	-999	-999	-999	-999	-999	-999	-999	-999	-999	-999	-999	1	3	4	2039	1032	1	1	0	-999	
20100155	1	4.12.2018	1	2	3	2	1	0	3	0	2	0	-999	-999	-999	-999	-999	-999	-999	-999	-999	-999	-999	-999	-999	-999	-999	-999	-999	-999	-999	-999	-999	-999	-999	-999	-999	-999	-999	-999	-999	-999	-999	-999	-999	-999	-999	-999	-999	-999	-999	-999	-999	-999	3	2	1	1567	904	1	1	1	1	
20100155	1	4.12.2018	1	3	0	0	2	0	3	3	0	3	-999	-999	-999	-999	-999	-999	-999	-999	-999	-999	-999	-999	-999	-999	-999	-999	-999	-999	-999	-999	-999	-999	-999	-999	-999	-999	-999	-999	-999	-999	-999	-999	-999	-999	-999	-999	-999	-999	-999	-999	-999	-999	3	3	4	1120	1087	1	1	1	0	
20100155	1	4.12.2018	1	4	2	2	1	0	2	0	0	3	-999	-999	-999	-999	-999	-999	-999	-999	-999	-999	-999	-999	-999	-999	-999	-999	-999	-999	-999	-999	-999	-999	-999	-999	-999	-999	-999	-999	-999	-999	-999	-999	-999	-999	-999	-999	-999	-999	-999	-999	-999	-999	0	1	2	1152	991	0	1	1	-999	
20100155	1	4.12.2018	1	5	3	2	0	3	1	2	3	1	-999	-999	-999	-999	-999	-999	-999	-999	-999	-999	-999	-999	-999	-999	-999	-999	-999	-999	-999	-999	-999	-999	-999	-999	-999	-999	-999	-999	-999	-999	-999	-999	-999	-999	-999	-999	-999	-999	-999	-999	-999	-999	3	2	1	831	2080	1	1	1	1	
20100155	1	4.12.2018	1	6	2	0	3	2	3	3	0	3	-999	-999	-999	-999	-999	-999	-999	-999	-999	-999	-999	-999	-999	-999	-999	-999	-999	-999	-999	-999	-999	-999	-999	-999	-999	-999	-999	-999	-999	-999	-999	-999	-999	-999	-999	-999	-999	-999	-999	-999	-999	-999	3	3	4	1519	1256	1	0	1	1	
20100155	1	4.12.2018	1	7	0	1	1	0	0	0	3	0	-999	-999	-999	-999	-999	-999	-999	-999	-999	-999	-999	-999	-999	-999	-999	-999	-999	-999	-999	-999	-999	-999	-999	-999	-999	-999	-999	-999	-999	-999	-999	-999	-999	-999	-999	-999	-999	-999	-999	-999	-999	-999	0	1	1	1535	976	1	0	1	0	
20100155	1	4.12.2018	1	8	1	2	0	1	2	3	0	2	-999	-999	-999	-999	-999	-999	-999	-999	-999	-999	-999	-999	-999	-999	-999	-999	-999	-999	-999	-999	-999	-999	-999	-999	-999	-999	-999	-999	-999	-999	-999	-999	-999	-999	-999	-999	-999	-999	-999	-999	-999	-999	1	2	3	1406	992	1	0	1	1	
20100155	1	4.12.2018	1	9	0	0	3	1	3	0	0	3	-999	-999	-999	-999	-999	-999	-999	-999	-999	-999	-999	-999	-999	-999	-999	-999	-999	-999	-999	-999	-999	-999	-999	-999	-999	-999	-999	-999	-999	-999	-999	-999	-999	-999	-999	-999	-999	-999	-999	-999	-999	-999	0	3	4	1494	2288	1	0	1	0	
20100155	1	4.12.2018	1	10	0	2	2	3	2	1	2	2	-999	-999	-999	-999	-999	-999	-999	-999	-999	-999	-999	-999	-999	-999	-999	-999	-999	-999	-999	-999	-999	-999	-999	-999	-999	-999	-999	-999	-999	-999	-999	-999	-999	-999	-999	-999	-999	-999	-999	-999	-999	-999	1	2	4	1798	944	1	0	0	-999	
20100155	1	4.12.2018	1	11	1	1	3	3	3	1	0	2	-999	-999	-999	-999	-999	-999	-999	-999	-999	-999	-999	-999	-999	-999	-999	-999	-999	-999	-999	-999	-999	-999	-999	-999	-999	-999	-999	-999	-999	-999	-999	-999	-999	-999	-999	-999	-999	-999	-999	-999	-999	-999	3	3	2	1638	2368	1	0	1	0	
20100155	1	4.12.2018	1	12	0	2	3	1	1	1	2	0	-999	-999	-999	-999	-999	-999	-999	-999	-999	-999	-999	-999	-999	-999	-999	-999	-999	-999	-999	-999	-999	-999	-999	-999	-999	-999	-999	-999	-999	-999	-999	-999	-999	-999	-999	-999	-999	-999	-999	-999	-999	-999	2	0	1	1854	-999	1	-999	1	0	
20100155	1	4.12.2018	1	13	0	0	2	1	0	3	1	1	-999	-999	-999	-999	-999	-999	-999	-999	-999	-999	-999	-999	-999	-999	-999	-999	-999	-999	-999	-999	-999	-999	-999	-999	-999	-999	-999	-999	-999	-999	-999	-999	-999	-999	-999	-999	-999	-999	-999	-999	-999	-999	2	1	2	2184	1344	1	1	1	1	
20100155	1	4.12.2018	1	14	2	2	1	1	1	3	0	3	-999	-999	-999	-999	-999	-999	-999	-999	-999	-999	-999	-999	-999	-999	-999	-999	-999	-999	-999	-999	-999	-999	-999	-999	-999	-999	-999	-999	-999	-999	-999	-999	-999	-999	-999	-999	-999	-999	-999	-999	-999	-999	1	3	2	1720	2241	1	1	1	0	
20100155	1	4.12.2018	1	15	1	1	2	3	3	0	1	3	-999	-999	-999	-999	-999	-999	-999	-999	-999	-999	-999	-999	-999	-999	-999	-999	-999	-999	-999	-999	-999	-999	-999	-999	-999	-999	-999	-999	-999	-999	-999	-999	-999	-999	-999	-999	-999	-999	-999	-999	-999	-999	3	0	3	1264	1672	1	1	1	1	
20100155	1	4.12.2018	1	16	0	1	3	0	1	1	2	0	-999	-999	-999	-999	-999	-999	-999	-999	-999	-999	-999	-999	-999	-999	-999	-999	-999	-999	-999	-999	-999	-999	-999	-999	-999	-999	-999	-999	-999	-999	-999	-999	-999	-999	-999	-999	-999	-999	-999	-999	-999	-999	0	1	3	2536	576	1	1	1	0	
20100155	1	4.12.2018	1	17	0	1	3	1	1	3	0	0	-999	-999	-999	-999	-999	-999	-999	-999	-999	-999	-999	-999	-999	-999	-999	-999	-999	-999	-999	-999	-999	-999	-999	-999	-999	-999	-999	-999	-999	-999	-999	-999	-999	-999	-999	-999	-999	-999	-999	-999	-999	-999	1	3	3	2159	672	1	1	1	1	
20100155	1	4.12.2018	1	18	3	1	2	3	0	3	0	0	-999	-999	-999	-999	-999	-999	-999	-999	-999	-999	-999	-999	-999	-999	-999	-999	-999	-999	-999	-999	-999	-999	-999	-999	-999	-999	-999	-999	-999	-999	-999	-999	-999	-999	-999	-999	-999	-999	-999	-999	-999	-999	2	3	1	1815	448	1	1	1	0	
20100155	1	4.12.2018	1	19	2	1	0	1	0	2	1	3	-999	-999	-999	-999	-999	-999	-999	-999	-999	-999	-999	-999	-999	-999	-999	-999	-999	-999	-999	-999	-999	-999	-999	-999	-999	-999	-999	-999	-999	-999	-999	-999	-999	-999	-999	-999	-999	-999	-999	-999	-999	-999	1	2	4	1134	776	1	1	0	-999	
20100155	1	4.12.2018	1	20	3	3	0	0	3	2	1	1	-999	-999	-999	-999	-999	-999	-999	-999	-999	-999	-999	-999	-999	-999	-999	-999	-999	-999	-999	-999	-999	-999	-999	-999	-999	-999	-999	-999	-999	-999	-999	-999	-999	-999	-999	-999	-999	-999	-999	-999	-999	-999	2	1	4	2510	432	1	1	0	-999	
20100155	1	4.12.2018	1	21	3	2	2	2	2	0	2	3	-999	-999	-999	-999	-999	-999	-999	-999	-999	-999	-999	-999	-999	-999	-999	-999	-999	-999	-999	-999	-999	-999	-999	-999	-999	-999	-999	-999	-999	-999	-999	-999	-999	-999	-999	-999	-999	-999	-999	-999	-999	-999	2	0	2	1214	1464	1	1	1	0	
20100155	1	4.12.2018	1	22	2	3	1	1	2	1	1	2	-999	-999	-999	-999	-999	-999	-999	-999	-999	-999	-999	-999	-999	-999	-999	-999	-999	-999	-999	-999	-999	-999	-999	-999	-999	-999	-999	-999	-999	-999	-999	-999	-999	-999	-999	-999	-999	-999	-999	-999	-999	-999	1	1	1	1741	1704	1	0	1	1	
20100155	1	4.12.2018	1	23	0	0	0	1	3	2	3	0	-999	-999	-999	-999	-999	-999	-999	-999	-999	-999	-999	-999	-999	-999	-999	-999	-999	-999	-999	-999	-999	-999	-999	-999	-999	-999	-999	-999	-999	-999	-999	-999	-999	-999	-999	-999	-999	-999	-999	-999	-999	-999	0	3	1	1277	1304	1	0	0	-999	
20100155	1	4.12.2018	2	0	3	0	1	0	0	2	3	1	1	1	2	1	0	0	-999	-999	-999	-999	-999	-999	-999	-999	-999	-999	-999	-999	-999	-999	-999	-999	-999	-999	-999	-999	-999	-999	-999	-999	-999	-999	-999	-999	-999	-999	-999	-999	-999	-999	-999	-999	1	2	5	966	1024	1	0	0	-999	
20100155	1	4.12.2018	2	1	2	3	3	3	0	3	2	1	0	0	3	0	1	1	-999	-999	-999	-999	-999	-999	-999	-999	-999	-999	-999	-999	-999	-999	-999	-999	-999	-999	-999	-999	-999	-999	-999	-999	-999	-999	-999	-999	-999	-999	-999	-999	-999	-999	-999	-999	2	3	4	838	1265	1	0	1	1	
20100155	1	4.12.2018	2	2	3	3	3	0	0	2	1	1	0	1	2	1	2	2	-999	-999	-999	-999	-999	-999	-999	-999	-999	-999	-999	-999	-999	-999	-999	-999	-999	-999	-999	-999	-999	-999	-999	-999	-999	-999	-999	-999	-999	-999	-999	-999	-999	-999	-999	-999	3	0	5	1310	1696	1	0	1	1	
20100155	1	4.12.2018	2	3	0	2	1	0	3	2	1	1	0	0	2	2	0	1	-999	-999	-999	-999	-999	-999	-999	-999	-999	-999	-999	-999	-999	-999	-999	-999	-999	-999	-999	-999	-999	-999	-999	-999	-999	-999	-999	-999	-999	-999	-999	-999	-999	-999	-999	-999	1	2	3	1479	3399	1	0	0	-999	
20100155	1	4.12.2018	2	4	2	2	1	3	3	1	2	3	1	0	0	3	3	3	-999	-999	-999	-999	-999	-999	-999	-999	-999	-999	-999	-999	-999	-999	-999	-999	-999	-999	-999	-999	-999	-999	-999	-999	-999	-999	-999	-999	-999	-999	-999	-999	-999	-999	-999	-999	1	0	6	1774	2680	1	1	1	0	
20100155	1	4.12.2018	2	5	0	3	0	2	0	1	1	0	2	0	1	1	1	3	-999	-999	-999	-999	-999	-999	-999	-999	-999	-999	-999	-999	-999	-999	-999	-999	-999	-999	-999	-999	-999	-999	-999	-999	-999	-999	-999	-999	-999	-999	-999	-999	-999	-999	-999	-999	1	2	4	1311	608	1	1	0	-999	
20100155	1	4.12.2018	2	6	2	0	0	0	0	1	0	2	1	1	3	1	3	3	-999	-999	-999	-999	-999	-999	-999	-999	-999	-999	-999	-999	-999	-999	-999	-999	-999	-999	-999	-999	-999	-999	-999	-999	-999	-999	-999	-999	-999	-999	-999	-999	-999	-999	-999	-999	2	3	6	1574	2432	1	1	0	-999	
20100155	1	4.12.2018	2	7	3	2	2	1	3	0	0	3	0	0	2	3	1	3	-999	-999	-999	-999	-999	-999	-999	-999	-999	-999	-999	-999	-999	-999	-999	-999	-999	-999	-999	-999	-999	-999	-999	-999	-999	-999	-999	-999	-999	-999	-999	-999	-999	-999	-999	-999	3	0	3	1502	824	1	0	1	0	
20100155	1	4.12.2018	2	8	3	3	0	3	2	1	0	2	2	0	2	3	3	2	-999	-999	-999	-999	-999	-999	-999	-999	-999	-999	-999	-999	-999	-999	-999	-999	-999	-999	-999	-999	-999	-999	-999	-999	-999	-999	-999	-999	-999	-999	-999	-999	-999	-999	-999	-999	3	3	4	1221	3264	1	1	1	0	
20100155	1	4.12.2018	2	9	3	3	3	0	1	0	3	2	0	0	2	3	2	2	-999	-999	-999	-999	-999	-999	-999	-999	-999	-999	-999	-999	-999	-999	-999	-999	-999	-999	-999	-999	-999	-999	-999	-999	-999	-999	-999	-999	-999	-999	-999	-999	-999	-999	-999	-999	3	3	1	1645	480	1	1	1	1	
20100155	1	4.12.2018	2	10	3	2	2	0	1	0	1	1	0	2	1	2	3	3	-999	-999	-999	-999	-999	-999	-999	-999	-999	-999	-999	-999	-999	-999	-999	-999	-999	-999	-999	-999	-999	-999	-999	-999	-999	-999	-999	-999	-999	-999	-999	-999	-999	-999	-999	-999	3	3	3	965	2280	1	0	1	1	
20100155	1	4.12.2018	2	11	1	0	1	2	3	0	3	1	2	3	2	0	3	2	-999	-999	-999	-999	-999	-999	-999	-999	-999	-999	-999	-999	-999	-999	-999	-999	-999	-999	-999	-999	-999	-999	-999	-999	-999	-999	-999	-999	-999	-999	-999	-999	-999	-999	-999	-999	2	1	1	1341	2544	1	1	0	-999	
20100155	1	4.12.2018	2	12	0	3	2	0	3	2	2	2	3	3	3	1	1	2	-999	-999	-999	-999	-999	-999	-999	-999	-999	-999	-999	-999	-999	-999	-999	-999	-999	-999	-999	-999	-999	-999	-999	-999	-999	-999	-999	-999	-999	-999	-999	-999	-999	-999	-999	-999	3	1	6	1245	2496	1	1	1	1	
20100155	1	4.12.2018	2	13	3	1	0	3	0	1	2	2	1	3	1	1	1	0	-999	-999	-999	-999	-999	-999	-999	-999	-999	-999	-999	-999	-999	-999	-999	-999	-999	-999	-999	-999	-999	-999	-999	-999	-999	-999	-999	-999	-999	-999	-999	-999	-999	-999	-999	-999	0	0	7	1629	2392	1	0	0	-999	
20100155	1	4.12.2018	2	14	2	0	3	3	2	3	3	2	1	0	3	1	0	2	-999	-999	-999	-999	-999	-999	-999	-999	-999	-999	-999	-999	-999	-999	-999	-999	-999	-999	-999	-999	-999	-999	-999	-999	-999	-999	-999	-999	-999	-999	-999	-999	-999	-999	-999	-999	2	2	3	1069	920	1	1	0	-999	
20100155	1	4.12.2018	2	15	1	0	0	2	0	3	2	1	2	2	1	2	1	1	-999	-999	-999	-999	-999	-999	-999	-999	-999	-999	-999	-999	-999	-999	-999	-999	-999	-999	-999	-999	-999	-999	-999	-999	-999	-999	-999	-999	-999	-999	-999	-999	-999	-999	-999	-999	2	1	4	1253	2824	1	1	1	1	
20100155	1	4.12.2018	2	16	0	3	1	0	3	3	3	0	1	3	2	0	3	2	-999	-999	-999	-999	-999	-999	-999	-999	-999	-999	-999	-999	-999	-999	-999	-999	-999	-999	-999	-999	-999	-999	-999	-999	-999	-999	-999	-999	-999	-999	-999	-999	-999	-999	-999	-999	0	0	3	2477	-999	0	-999	1	-999	
20100155	1	4.12.2018	2	17	1	3	2	3	0	0	2	0	2	2	1	0	0	1	-999	-999	-999	-999	-999	-999	-999	-999	-999	-999	-999	-999	-999	-999	-999	-999	-999	-999	-999	-999	-999	-999	-999	-999	-999	-999	-999	-999	-999	-999	-999	-999	-999	-999	-999	-999	2	2	2	992	1304	1	0	1	1	
20100155	1	4.12.2018	2	18	3	0	0	2	2	2	1	3	0	1	3	1	0	0	-999	-999	-999	-999	-999	-999	-999	-999	-999	-999	-999	-999	-999	-999	-999	-999	-999	-999	-999	-999	-999	-999	-999	-999	-999	-999	-999	-999	-999	-999	-999	-999	-999	-999	-999	-999	0	2	2	1495	2992	1	0	1	0	
20100155	1	4.12.2018	2	19	3	0	0	0	0	1	3	1	0	2	1	1	2	2	-999	-999	-999	-999	-999	-999	-999	-999	-999	-999	-999	-999	-999	-999	-999	-999	-999	-999	-999	-999	-999	-999	-999	-999	-999	-999	-999	-999	-999	-999	-999	-999	-999	-999	-999	-999	1	3	2	2439	-999	0	-999	1	-999	
20100155	1	4.12.2018	2	20	0	2	3	1	2	0	1	3	3	2	0	3	1	0	-999	-999	-999	-999	-999	-999	-999	-999	-999	-999	-999	-999	-999	-999	-999	-999	-999	-999	-999	-999	-999	-999	-999	-999	-999	-999	-999	-999	-999	-999	-999	-999	-999	-999	-999	-999	2	0	3	1514	1672	1	1	1	1	
20100155	1	4.12.2018	2	21	1	3	0	1	1	0	3	2	0	2	0	0	0	3	-999	-999	-999	-999	-999	-999	-999	-999	-999	-999	-999	-999	-999	-999	-999	-999	-999	-999	-999	-999	-999	-999	-999	-999	-999	-999	-999	-999	-999	-999	-999	-999	-999	-999	-999	-999	1	0	6	1393	1176	1	0	1	1	
20100155	1	4.12.2018	2	22	3	2	1	0	1	2	0	1	2	2	3	3	3	1	-999	-999	-999	-999	-999	-999	-999	-999	-999	-999	-999	-999	-999	-999	-999	-999	-999	-999	-999	-999	-999	-999	-999	-999	-999	-999	-999	-999	-999	-999	-999	-999	-999	-999	-999	-999	3	3	6	1377	872	1	1	1	1	
20100155	1	4.12.2018	2	23	2	3	0	1	2	1	2	2	3	2	3	1	3	0	-999	-999	-999	-999	-999	-999	-999	-999	-999	-999	-999	-999	-999	-999	-999	-999	-999	-999	-999	-999	-999	-999	-999	-999	-999	-999	-999	-999	-999	-999	-999	-999	-999	-999	-999	-999	0	1	1	1729	1424	1	1	1	0	
20100155	1	4.12.2018	3	0	0	0	2	0	3	1	2	1	3	2	0	2	0	3	-999	-999	-999	-999	-999	-999	-999	-999	-999	-999	-999	-999	-999	-999	-999	-999	-999	-999	-999	-999	-999	-999	-999	-999	-999	-999	-999	-999	-999	-999	-999	-999	-999	-999	-999	-999	2	2	5	2311	1648	1	1	0	-999	
20100155	1	4.12.2018	3	1	1	2	2	1	0	1	1	0	2	0	3	1	2	2	-999	-999	-999	-999	-999	-999	-999	-999	-999	-999	-999	-999	-999	-999	-999	-999	-999	-999	-999	-999	-999	-999	-999	-999	-999	-999	-999	-999	-999	-999	-999	-999	-999	-999	-999	-999	1	2	1	1263	2880	1	1	1	1	
20100155	1	4.12.2018	3	2	2	2	3	2	0	2	0	3	1	2	1	3	2	0	-999	-999	-999	-999	-999	-999	-999	-999	-999	-999	-999	-999	-999	-999	-999	-999	-999	-999	-999	-999	-999	-999	-999	-999	-999	-999	-999	-999	-999	-999	-999	-999	-999	-999	-999	-999	1	0	4	2752	-999	1	-999	0	-999	
20100155	1	4.12.2018	3	3	1	0	1	2	3	0	2	0	1	3	2	2	2	3	-999	-999	-999	-999	-999	-999	-999	-999	-999	-999	-999	-999	-999	-999	-999	-999	-999	-999	-999	-999	-999	-999	-999	-999	-999	-999	-999	-999	-999	-999	-999	-999	-999	-999	-999	-999	1	0	1	1434	784	1	1	1	1	
20100155	1	4.12.2018	3	4	0	2	2	1	2	3	0	3	2	2	3	1	3	0	-999	-999	-999	-999	-999	-999	-999	-999	-999	-999	-999	-999	-999	-999	-999	-999	-999	-999	-999	-999	-999	-999	-999	-999	-999	-999	-999	-999	-999	-999	-999	-999	-999	-999	-999	-999	2	1	7	1010	2512	1	0	1	1	
20100155	1	4.12.2018	3	5	0	3	1	0	2	0	3	3	2	2	2	3	3	1	-999	-999	-999	-999	-999	-999	-999	-999	-999	-999	-999	-999	-999	-999	-999	-999	-999	-999	-999	-999	-999	-999	-999	-999	-999	-999	-999	-999	-999	-999	-999	-999	-999	-999	-999	-999	2	2	5	1730	2288	1	1	1	1	
20100155	1	4.12.2018	3	6	1	3	2	1	1	2	3	0	1	0	1	1	0	3	-999	-999	-999	-999	-999	-999	-999	-999	-999	-999	-999	-999	-999	-999	-999	-999	-999	-999	-999	-999	-999	-999	-999	-999	-999	-999	-999	-999	-999	-999	-999	-999	-999	-999	-999	-999	2	3	7	2417	-999	0	-999	1	-999	
20100155	1	4.12.2018	3	7	1	1	3	0	3	2	0	1	1	3	2	0	1	0	-999	-999	-999	-999	-999	-999	-999	-999	-999	-999	-999	-999	-999	-999	-999	-999	-999	-999	-999	-999	-999	-999	-999	-999	-999	-999	-999	-999	-999	-999	-999	-999	-999	-999	-999	-999	3	2	3	1220	1456	1	1	1	1	
20100155	1	4.12.2018	3	8	2	3	0	3	3	0	1	3	0	0	2	2	2	1	-999	-999	-999	-999	-999	-999	-999	-999	-999	-999	-999	-999	-999	-999	-999	-999	-999	-999	-999	-999	-999	-999	-999	-999	-999	-999	-999	-999	-999	-999	-999	-999	-999	-999	-999	-999	2	1	2	1324	-999	1	-999	1	0	
20100155	1	4.12.2018	3	9	3	1	1	0	0	0	3	2	3	3	1	1	1	2	-999	-999	-999	-999	-999	-999	-999	-999	-999	-999	-999	-999	-999	-999	-999	-999	-999	-999	-999	-999	-999	-999	-999	-999	-999	-999	-999	-999	-999	-999	-999	-999	-999	-999	-999	-999	3	3	4	1542	1696	1	0	1	1	
20100155	1	4.12.2018	3	10	0	1	2	3	1	1	3	2	1	3	2	1	2	2	-999	-999	-999	-999	-999	-999	-999	-999	-999	-999	-999	-999	-999	-999	-999	-999	-999	-999	-999	-999	-999	-999	-999	-999	-999	-999	-999	-999	-999	-999	-999	-999	-999	-999	-999	-999	3	2	1	2166	1176	1	1	1	0	
20100155	1	4.12.2018	3	11	3	1	1	0	0	0	0	1	3	2	3	0	0	2	-999	-999	-999	-999	-999	-999	-999	-999	-999	-999	-999	-999	-999	-999	-999	-999	-999	-999	-999	-999	-999	-999	-999	-999	-999	-999	-999	-999	-999	-999	-999	-999	-999	-999	-999	-999	1	0	2	1869	2168	1	0	1	0	
20100155	1	4.12.2018	3	12	1	1	2	1	1	0	2	3	3	3	0	3	0	1	-999	-999	-999	-999	-999	-999	-999	-999	-999	-999	-999	-999	-999	-999	-999	-999	-999	-999	-999	-999	-999	-999	-999	-999	-999	-999	-999	-999	-999	-999	-999	-999	-999	-999	-999	-999	1	1	5	1413	2784	1	1	1	0	
20100155	1	4.12.2018	3	13	1	0	2	1	0	1	2	3	2	0	3	0	3	2	-999	-999	-999	-999	-999	-999	-999	-999	-999	-999	-999	-999	-999	-999	-999	-999	-999	-999	-999	-999	-999	-999	-999	-999	-999	-999	-999	-999	-999	-999	-999	-999	-999	-999	-999	-999	2	1	2	1293	1072	1	1	1	1	
20100155	1	4.12.2018	3	14	1	0	2	2	3	2	0	1	0	0	3	0	1	3	-999	-999	-999	-999	-999	-999	-999	-999	-999	-999	-999	-999	-999	-999	-999	-999	-999	-999	-999	-999	-999	-999	-999	-999	-999	-999	-999	-999	-999	-999	-999	-999	-999	-999	-999	-999	2	3	6	1325	1464	1	0	0	-999	
20100155	1	4.12.2018	3	15	0	1	2	0	0	0	2	2	0	2	3	2	2	3	-999	-999	-999	-999	-999	-999	-999	-999	-999	-999	-999	-999	-999	-999	-999	-999	-999	-999	-999	-999	-999	-999	-999	-999	-999	-999	-999	-999	-999	-999	-999	-999	-999	-999	-999	-999	2	0	3	1804	1072	1	1	1	0	
20100155	1	4.12.2018	3	16	2	2	1	1	2	1	2	3	0	2	3	2	3	1	-999	-999	-999	-999	-999	-999	-999	-999	-999	-999	-999	-999	-999	-999	-999	-999	-999	-999	-999	-999	-999	-999	-999	-999	-999	-999	-999	-999	-999	-999	-999	-999	-999	-999	-999	-999	2	3	4	1124	1824	1	0	1	0	
20100155	1	4.12.2018	3	17	1	3	1	1	0	3	1	2	3	1	2	1	2	3	-999	-999	-999	-999	-999	-999	-999	-999	-999	-999	-999	-999	-999	-999	-999	-999	-999	-999	-999	-999	-999	-999	-999	-999	-999	-999	-999	-999	-999	-999	-999	-999	-999	-999	-999	-999	0	2	1	988	2648	0	1	1	-999	
20100155	1	4.12.2018	3	18	2	0	1	1	1	0	0	0	1	2	0	3	3	2	-999	-999	-999	-999	-999	-999	-999	-999	-999	-999	-999	-999	-999	-999	-999	-999	-999	-999	-999	-999	-999	-999	-999	-999	-999	-999	-999	-999	-999	-999	-999	-999	-999	-999	-999	-999	0	3	6	1332	1720	1	1	1	1	
20100155	1	4.12.2018	3	19	2	2	2	3	3	3	0	0	0	3	1	2	1	0	-999	-999	-999	-999	-999	-999	-999	-999	-999	-999	-999	-999	-999	-999	-999	-999	-999	-999	-999	-999	-999	-999	-999	-999	-999	-999	-999	-999	-999	-999	-999	-999	-999	-999	-999	-999	1	1	4	932	-999	1	-999	0	-999	
20100155	1	4.12.2018	3	20	0	2	1	2	3	2	2	0	3	0	1	3	2	1	-999	-999	-999	-999	-999	-999	-999	-999	-999	-999	-999	-999	-999	-999	-999	-999	-999	-999	-999	-999	-999	-999	-999	-999	-999	-999	-999	-999	-999	-999	-999	-999	-999	-999	-999	-999	2	1	7	670	1640	1	1	1	1	
20100155	1	4.12.2018	3	21	0	2	3	0	1	1	3	3	3	2	1	2	3	1	-999	-999	-999	-999	-999	-999	-999	-999	-999	-999	-999	-999	-999	-999	-999	-999	-999	-999	-999	-999	-999	-999	-999	-999	-999	-999	-999	-999	-999	-999	-999	-999	-999	-999	-999	-999	3	0	3	822	-999	1	-999	1	0	
20100155	1	4.12.2018	3	22	3	3	0	2	1	3	3	1	1	2	2	2	1	0	-999	-999	-999	-999	-999	-999	-999	-999	-999	-999	-999	-999	-999	-999	-999	-999	-999	-999	-999	-999	-999	-999	-999	-999	-999	-999	-999	-999	-999	-999	-999	-999	-999	-999	-999	-999	2	3	2	961	520	1	1	0	-999	
20100155	1	4.12.2018	3	23	2	1	1	1	2	2	1	2	3	2	3	1	0	3	-999	-999	-999	-999	-999	-999	-999	-999	-999	-999	-999	-999	-999	-999	-999	-999	-999	-999	-999	-999	-999	-999	-999	-999	-999	-999	-999	-999	-999	-999	-999	-999	-999	-999	-999	-999	2	1	7	1105	1584	1	0	1	1	
20100155	1	4.12.2018	4	0	1	2	0	3	1	1	0	2	-999	-999	-999	-999	-999	-999	-999	-999	-999	-999	-999	-999	-999	-999	-999	-999	-999	-999	-999	-999	-999	-999	-999	-999	-999	-999	-999	-999	-999	-999	-999	-999	-999	-999	-999	-999	-999	-999	-999	-999	-999	-999	0	3	2	1364	600	1	0	1	0	
20100155	1	4.12.2018	4	1	1	2	0	1	3	3	0	2	-999	-999	-999	-999	-999	-999	-999	-999	-999	-999	-999	-999	-999	-999	-999	-999	-999	-999	-999	-999	-999	-999	-999	-999	-999	-999	-999	-999	-999	-999	-999	-999	-999	-999	-999	-999	-999	-999	-999	-999	-999	-999	2	2	1	1661	743	1	1	0	-999	
20100155	1	4.12.2018	4	2	2	0	2	3	3	2	1	0	-999	-999	-999	-999	-999	-999	-999	-999	-999	-999	-999	-999	-999	-999	-999	-999	-999	-999	-999	-999	-999	-999	-999	-999	-999	-999	-999	-999	-999	-999	-999	-999	-999	-999	-999	-999	-999	-999	-999	-999	-999	-999	2	0	1	812	560	1	1	1	1	
20100155	1	4.12.2018	4	3	2	0	1	3	1	2	2	1	-999	-999	-999	-999	-999	-999	-999	-999	-999	-999	-999	-999	-999	-999	-999	-999	-999	-999	-999	-999	-999	-999	-999	-999	-999	-999	-999	-999	-999	-999	-999	-999	-999	-999	-999	-999	-999	-999	-999	-999	-999	-999	0	3	1	1676	-999	0	-999	1	-999	
20100155	1	4.12.2018	4	4	3	3	1	1	1	0	3	1	-999	-999	-999	-999	-999	-999	-999	-999	-999	-999	-999	-999	-999	-999	-999	-999	-999	-999	-999	-999	-999	-999	-999	-999	-999	-999	-999	-999	-999	-999	-999	-999	-999	-999	-999	-999	-999	-999	-999	-999	-999	-999	3	3	3	870	1944	1	0	1	1	
20100155	1	4.12.2018	4	5	2	0	2	1	0	1	0	0	-999	-999	-999	-999	-999	-999	-999	-999	-999	-999	-999	-999	-999	-999	-999	-999	-999	-999	-999	-999	-999	-999	-999	-999	-999	-999	-999	-999	-999	-999	-999	-999	-999	-999	-999	-999	-999	-999	-999	-999	-999	-999	2	0	1	1030	553	1	1	1	1	
20100155	1	4.12.2018	4	6	0	2	3	0	2	1	0	3	-999	-999	-999	-999	-999	-999	-999	-999	-999	-999	-999	-999	-999	-999	-999	-999	-999	-999	-999	-999	-999	-999	-999	-999	-999	-999	-999	-999	-999	-999	-999	-999	-999	-999	-999	-999	-999	-999	-999	-999	-999	-999	0	3	2	638	576	1	1	1	0	
20100155	1	4.12.2018	4	7	2	1	0	1	0	2	3	1	-999	-999	-999	-999	-999	-999	-999	-999	-999	-999	-999	-999	-999	-999	-999	-999	-999	-999	-999	-999	-999	-999	-999	-999	-999	-999	-999	-999	-999	-999	-999	-999	-999	-999	-999	-999	-999	-999	-999	-999	-999	-999	2	1	1	1078	511	1	1	1	1	
20100155	1	4.12.2018	4	8	3	3	0	2	2	2	3	1	-999	-999	-999	-999	-999	-999	-999	-999	-999	-999	-999	-999	-999	-999	-999	-999	-999	-999	-999	-999	-999	-999	-999	-999	-999	-999	-999	-999	-999	-999	-999	-999	-999	-999	-999	-999	-999	-999	-999	-999	-999	-999	0	2	1	1045	1312	1	0	1	1	
20100155	1	4.12.2018	4	9	3	0	0	2	3	1	1	0	-999	-999	-999	-999	-999	-999	-999	-999	-999	-999	-999	-999	-999	-999	-999	-999	-999	-999	-999	-999	-999	-999	-999	-999	-999	-999	-999	-999	-999	-999	-999	-999	-999	-999	-999	-999	-999	-999	-999	-999	-999	-999	2	1	3	1117	2104	1	0	0	-999	
20100155	1	4.12.2018	4	10	2	1	1	3	3	2	1	1	-999	-999	-999	-999	-999	-999	-999	-999	-999	-999	-999	-999	-999	-999	-999	-999	-999	-999	-999	-999	-999	-999	-999	-999	-999	-999	-999	-999	-999	-999	-999	-999	-999	-999	-999	-999	-999	-999	-999	-999	-999	-999	0	0	3	1597	-999	0	-999	1	-999	
20100155	1	4.12.2018	4	11	0	3	3	3	3	1	1	1	-999	-999	-999	-999	-999	-999	-999	-999	-999	-999	-999	-999	-999	-999	-999	-999	-999	-999	-999	-999	-999	-999	-999	-999	-999	-999	-999	-999	-999	-999	-999	-999	-999	-999	-999	-999	-999	-999	-999	-999	-999	-999	3	1	4	1600	1360	1	0	1	1	
20100155	1	4.12.2018	4	12	0	3	1	3	3	0	3	3	-999	-999	-999	-999	-999	-999	-999	-999	-999	-999	-999	-999	-999	-999	-999	-999	-999	-999	-999	-999	-999	-999	-999	-999	-999	-999	-999	-999	-999	-999	-999	-999	-999	-999	-999	-999	-999	-999	-999	-999	-999	-999	1	2	3	2232	-999	0	-999	1	-999	
20100155	1	4.12.2018	4	13	2	2	1	1	0	3	2	3	-999	-999	-999	-999	-999	-999	-999	-999	-999	-999	-999	-999	-999	-999	-999	-999	-999	-999	-999	-999	-999	-999	-999	-999	-999	-999	-999	-999	-999	-999	-999	-999	-999	-999	-999	-999	-999	-999	-999	-999	-999	-999	2	2	3	860	751	1	1	1	0	
20100155	1	4.12.2018	4	14	0	0	3	1	2	3	1	1	-999	-999	-999	-999	-999	-999	-999	-999	-999	-999	-999	-999	-999	-999	-999	-999	-999	-999	-999	-999	-999	-999	-999	-999	-999	-999	-999	-999	-999	-999	-999	-999	-999	-999	-999	-999	-999	-999	-999	-999	-999	-999	0	0	1	1059	513	1	1	1	1	
20100155	1	4.12.2018	4	15	1	0	2	1	0	2	1	2	-999	-999	-999	-999	-999	-999	-999	-999	-999	-999	-999	-999	-999	-999	-999	-999	-999	-999	-999	-999	-999	-999	-999	-999	-999	-999	-999	-999	-999	-999	-999	-999	-999	-999	-999	-999	-999	-999	-999	-999	-999	-999	1	1	1	1179	2816	1	1	0	-999	
20100155	1	4.12.2018	4	16	0	1	0	3	2	0	2	3	-999	-999	-999	-999	-999	-999	-999	-999	-999	-999	-999	-999	-999	-999	-999	-999	-999	-999	-999	-999	-999	-999	-999	-999	-999	-999	-999	-999	-999	-999	-999	-999	-999	-999	-999	-999	-999	-999	-999	-999	-999	-999	0	3	1	1227	1384	1	0	1	1	
20100155	1	4.12.2018	4	17	1	2	2	2	0	2	3	0	-999	-999	-999	-999	-999	-999	-999	-999	-999	-999	-999	-999	-999	-999	-999	-999	-999	-999	-999	-999	-999	-999	-999	-999	-999	-999	-999	-999	-999	-999	-999	-999	-999	-999	-999	-999	-999	-999	-999	-999	-999	-999	0	1	2	1651	928	1	1	0	-999	
20100155	1	4.12.2018	4	18	2	1	2	0	3	1	2	3	-999	-999	-999	-999	-999	-999	-999	-999	-999	-999	-999	-999	-999	-999	-999	-999	-999	-999	-999	-999	-999	-999	-999	-999	-999	-999	-999	-999	-999	-999	-999	-999	-999	-999	-999	-999	-999	-999	-999	-999	-999	-999	1	3	2	1075	1672	1	0	0	-999	
20100155	1	4.12.2018	4	19	3	1	2	1	3	0	0	1	-999	-999	-999	-999	-999	-999	-999	-999	-999	-999	-999	-999	-999	-999	-999	-999	-999	-999	-999	-999	-999	-999	-999	-999	-999	-999	-999	-999	-999	-999	-999	-999	-999	-999	-999	-999	-999	-999	-999	-999	-999	-999	3	1	2	1012	599	1	1	1	0	
20100155	1	4.12.2018	4	20	2	1	0	0	3	2	1	0	-999	-999	-999	-999	-999	-999	-999	-999	-999	-999	-999	-999	-999	-999	-999	-999	-999	-999	-999	-999	-999	-999	-999	-999	-999	-999	-999	-999	-999	-999	-999	-999	-999	-999	-999	-999	-999	-999	-999	-999	-999	-999	0	3	2	1795	-999	0	-999	1	-999	
20100155	1	4.12.2018	4	21	2	0	1	3	1	0	0	3	-999	-999	-999	-999	-999	-999	-999	-999	-999	-999	-999	-999	-999	-999	-999	-999	-999	-999	-999	-999	-999	-999	-999	-999	-999	-999	-999	-999	-999	-999	-999	-999	-999	-999	-999	-999	-999	-999	-999	-999	-999	-999	2	0	1	902	464	1	1	1	1	
20100155	1	4.12.2018	4	22	2	3	1	2	3	1	3	0	-999	-999	-999	-999	-999	-999	-999	-999	-999	-999	-999	-999	-999	-999	-999	-999	-999	-999	-999	-999	-999	-999	-999	-999	-999	-999	-999	-999	-999	-999	-999	-999	-999	-999	-999	-999	-999	-999	-999	-999	-999	-999	2	1	3	1062	928	1	1	0	-999	
20100155	1	4.12.2018	4	23	2	1	1	2	2	0	0	2	-999	-999	-999	-999	-999	-999	-999	-999	-999	-999	-999	-999	-999	-999	-999	-999	-999	-999	-999	-999	-999	-999	-999	-999	-999	-999	-999	-999	-999	-999	-999	-999	-999	-999	-999	-999	-999	-999	-999	-999	-999	-999	2	1	1	1190	2384	1	1	1	1	
