VPID	SESSION_ID	DATE	BLOCK	TRIAL	PX0	PY0	PX1	PY1	PX2	PY2	PX3	PY3	PX4	PY4	PX5	PY5	PX6	PY6	PX7	PY7	PX8	PY8	PX9	PY9	PX10	PY10	PX11	PY11	PX12	PY12	PX13	PY13	PX14	PY14	PX15	PY15	PX16	PY16	PX17	PY17	PX18	PY18	PX19	PY19	PX20	PY20	PX21	PY21	PX22	PY22	PX23	PY23	PX24	PY24	AX	AY	AD	RT1	RT2	Resp1	Resp2	Corr1	Corr2
20200157	1	7.1.2019	0	0	1	2	3	1	2	3	0	1	-999	-999	-999	-999	-999	-999	-999	-999	-999	-999	-999	-999	-999	-999	-999	-999	-999	-999	-999	-999	-999	-999	-999	-999	-999	-999	-999	-999	-999	-999	-999	-999	-999	-999	-999	-999	-999	-999	-999	-999	-999	-999	3	1	2	892	-999	0	-999	0	-999	
20200157	1	7.1.2019	0	1	3	2	1	2	2	0	2	1	-999	-999	-999	-999	-999	-999	-999	-999	-999	-999	-999	-999	-999	-999	-999	-999	-999	-999	-999	-999	-999	-999	-999	-999	-999	-999	-999	-999	-999	-999	-999	-999	-999	-999	-999	-999	-999	-999	-999	-999	-999	-999	1	2	2	2121	-999	1	-999	1	0	
20200157	1	7.1.2019	0	2	2	1	0	0	1	2	3	0	2	0	1	3	3	3	-999	-999	-999	-999	-999	-999	-999	-999	-999	-999	-999	-999	-999	-999	-999	-999	-999	-999	-999	-999	-999	-999	-999	-999	-999	-999	-999	-999	-999	-999	-999	-999	-999	-999	-999	-999	3	3	3	2733	-999	0	-999	0	-999	
20200157	1	7.1.2019	0	3	0	3	3	2	3	3	1	3	0	2	2	1	0	0	-999	-999	-999	-999	-999	-999	-999	-999	-999	-999	-999	-999	-999	-999	-999	-999	-999	-999	-999	-999	-999	-999	-999	-999	-999	-999	-999	-999	-999	-999	-999	-999	-999	-999	-999	-999	0	2	7	2841	-999	1	-999	1	0	
20200157	1	7.1.2019	1	0	1	1	2	2	2	1	2	3	-999	-999	-999	-999	-999	-999	-999	-999	-999	-999	-999	-999	-999	-999	-999	-999	-999	-999	-999	-999	-999	-999	-999	-999	-999	-999	-999	-999	-999	-999	-999	-999	-999	-999	-999	-999	-999	-999	-999	-999	-999	-999	2	2	2	2229	-999	1	-999	1	0	
20200157	1	7.1.2019	1	1	2	3	1	1	3	2	0	3	-999	-999	-999	-999	-999	-999	-999	-999	-999	-999	-999	-999	-999	-999	-999	-999	-999	-999	-999	-999	-999	-999	-999	-999	-999	-999	-999	-999	-999	-999	-999	-999	-999	-999	-999	-999	-999	-999	-999	-999	-999	-999	1	3	4	1739	-999	0	-999	1	-999	
20200157	1	7.1.2019	1	2	3	2	1	0	3	0	2	0	-999	-999	-999	-999	-999	-999	-999	-999	-999	-999	-999	-999	-999	-999	-999	-999	-999	-999	-999	-999	-999	-999	-999	-999	-999	-999	-999	-999	-999	-999	-999	-999	-999	-999	-999	-999	-999	-999	-999	-999	-999	-999	3	2	1	3673	-999	0	-999	0	-999	
20200157	1	7.1.2019	1	3	0	0	2	0	3	3	0	3	-999	-999	-999	-999	-999	-999	-999	-999	-999	-999	-999	-999	-999	-999	-999	-999	-999	-999	-999	-999	-999	-999	-999	-999	-999	-999	-999	-999	-999	-999	-999	-999	-999	-999	-999	-999	-999	-999	-999	-999	-999	-999	3	3	4	2216	2439	1	0	1	1	
20200157	1	7.1.2019	1	4	2	2	1	0	2	0	0	3	-999	-999	-999	-999	-999	-999	-999	-999	-999	-999	-999	-999	-999	-999	-999	-999	-999	-999	-999	-999	-999	-999	-999	-999	-999	-999	-999	-999	-999	-999	-999	-999	-999	-999	-999	-999	-999	-999	-999	-999	-999	-999	0	1	2	1863	-999	0	-999	1	-999	
20200157	1	7.1.2019	1	5	3	2	0	3	1	2	3	1	-999	-999	-999	-999	-999	-999	-999	-999	-999	-999	-999	-999	-999	-999	-999	-999	-999	-999	-999	-999	-999	-999	-999	-999	-999	-999	-999	-999	-999	-999	-999	-999	-999	-999	-999	-999	-999	-999	-999	-999	-999	-999	3	2	1	2245	1616	1	0	1	0	
20200157	1	7.1.2019	1	6	2	0	3	2	3	3	0	3	-999	-999	-999	-999	-999	-999	-999	-999	-999	-999	-999	-999	-999	-999	-999	-999	-999	-999	-999	-999	-999	-999	-999	-999	-999	-999	-999	-999	-999	-999	-999	-999	-999	-999	-999	-999	-999	-999	-999	-999	-999	-999	3	3	4	1756	1673	1	0	1	1	
20200157	1	7.1.2019	1	7	0	1	1	0	0	0	3	0	-999	-999	-999	-999	-999	-999	-999	-999	-999	-999	-999	-999	-999	-999	-999	-999	-999	-999	-999	-999	-999	-999	-999	-999	-999	-999	-999	-999	-999	-999	-999	-999	-999	-999	-999	-999	-999	-999	-999	-999	-999	-999	0	1	1	2388	1081	1	0	1	0	
20200157	1	7.1.2019	1	8	1	2	0	1	2	3	0	2	-999	-999	-999	-999	-999	-999	-999	-999	-999	-999	-999	-999	-999	-999	-999	-999	-999	-999	-999	-999	-999	-999	-999	-999	-999	-999	-999	-999	-999	-999	-999	-999	-999	-999	-999	-999	-999	-999	-999	-999	-999	-999	1	2	3	2941	-999	0	-999	0	-999	
20200157	1	7.1.2019	1	9	0	0	3	1	3	0	0	3	-999	-999	-999	-999	-999	-999	-999	-999	-999	-999	-999	-999	-999	-999	-999	-999	-999	-999	-999	-999	-999	-999	-999	-999	-999	-999	-999	-999	-999	-999	-999	-999	-999	-999	-999	-999	-999	-999	-999	-999	-999	-999	0	3	4	1099	1959	1	0	1	0	
20200157	1	7.1.2019	1	10	0	2	2	3	2	1	2	2	-999	-999	-999	-999	-999	-999	-999	-999	-999	-999	-999	-999	-999	-999	-999	-999	-999	-999	-999	-999	-999	-999	-999	-999	-999	-999	-999	-999	-999	-999	-999	-999	-999	-999	-999	-999	-999	-999	-999	-999	-999	-999	1	2	4	2426	-999	0	-999	1	-999	
20200157	1	7.1.2019	1	11	1	1	3	3	3	1	0	2	-999	-999	-999	-999	-999	-999	-999	-999	-999	-999	-999	-999	-999	-999	-999	-999	-999	-999	-999	-999	-999	-999	-999	-999	-999	-999	-999	-999	-999	-999	-999	-999	-999	-999	-999	-999	-999	-999	-999	-999	-999	-999	3	3	2	2504	1697	1	0	1	0	
20200157	1	7.1.2019	1	12	0	2	3	1	1	1	2	0	-999	-999	-999	-999	-999	-999	-999	-999	-999	-999	-999	-999	-999	-999	-999	-999	-999	-999	-999	-999	-999	-999	-999	-999	-999	-999	-999	-999	-999	-999	-999	-999	-999	-999	-999	-999	-999	-999	-999	-999	-999	-999	2	0	1	2233	1848	1	0	1	1	
20200157	1	7.1.2019	1	13	0	0	2	1	0	3	1	1	-999	-999	-999	-999	-999	-999	-999	-999	-999	-999	-999	-999	-999	-999	-999	-999	-999	-999	-999	-999	-999	-999	-999	-999	-999	-999	-999	-999	-999	-999	-999	-999	-999	-999	-999	-999	-999	-999	-999	-999	-999	-999	2	1	2	2633	-999	0	-999	0	-999	
20200157	1	7.1.2019	1	14	2	2	1	1	1	3	0	3	-999	-999	-999	-999	-999	-999	-999	-999	-999	-999	-999	-999	-999	-999	-999	-999	-999	-999	-999	-999	-999	-999	-999	-999	-999	-999	-999	-999	-999	-999	-999	-999	-999	-999	-999	-999	-999	-999	-999	-999	-999	-999	1	3	2	3071	-999	0	-999	0	-999	
20200157	1	7.1.2019	1	15	1	1	2	3	3	0	1	3	-999	-999	-999	-999	-999	-999	-999	-999	-999	-999	-999	-999	-999	-999	-999	-999	-999	-999	-999	-999	-999	-999	-999	-999	-999	-999	-999	-999	-999	-999	-999	-999	-999	-999	-999	-999	-999	-999	-999	-999	-999	-999	3	0	3	1565	-999	1	-999	1	0	
20200157	1	7.1.2019	1	16	0	1	3	0	1	1	2	0	-999	-999	-999	-999	-999	-999	-999	-999	-999	-999	-999	-999	-999	-999	-999	-999	-999	-999	-999	-999	-999	-999	-999	-999	-999	-999	-999	-999	-999	-999	-999	-999	-999	-999	-999	-999	-999	-999	-999	-999	-999	-999	0	1	3	2380	1623	1	0	1	1	
20200157	1	7.1.2019	1	17	0	1	3	1	1	3	0	0	-999	-999	-999	-999	-999	-999	-999	-999	-999	-999	-999	-999	-999	-999	-999	-999	-999	-999	-999	-999	-999	-999	-999	-999	-999	-999	-999	-999	-999	-999	-999	-999	-999	-999	-999	-999	-999	-999	-999	-999	-999	-999	1	3	3	2307	1209	1	0	1	0	
20200157	1	7.1.2019	1	18	3	1	2	3	0	3	0	0	-999	-999	-999	-999	-999	-999	-999	-999	-999	-999	-999	-999	-999	-999	-999	-999	-999	-999	-999	-999	-999	-999	-999	-999	-999	-999	-999	-999	-999	-999	-999	-999	-999	-999	-999	-999	-999	-999	-999	-999	-999	-999	2	3	1	1955	-999	0	-999	0	-999	
20200157	1	7.1.2019	1	19	2	1	0	1	0	2	1	3	-999	-999	-999	-999	-999	-999	-999	-999	-999	-999	-999	-999	-999	-999	-999	-999	-999	-999	-999	-999	-999	-999	-999	-999	-999	-999	-999	-999	-999	-999	-999	-999	-999	-999	-999	-999	-999	-999	-999	-999	-999	-999	1	2	4	2394	-999	0	-999	1	-999	
20200157	1	7.1.2019	1	20	3	3	0	0	3	2	1	1	-999	-999	-999	-999	-999	-999	-999	-999	-999	-999	-999	-999	-999	-999	-999	-999	-999	-999	-999	-999	-999	-999	-999	-999	-999	-999	-999	-999	-999	-999	-999	-999	-999	-999	-999	-999	-999	-999	-999	-999	-999	-999	2	1	4	2360	-999	0	-999	1	-999	
20200157	1	7.1.2019	1	21	3	2	2	2	2	0	2	3	-999	-999	-999	-999	-999	-999	-999	-999	-999	-999	-999	-999	-999	-999	-999	-999	-999	-999	-999	-999	-999	-999	-999	-999	-999	-999	-999	-999	-999	-999	-999	-999	-999	-999	-999	-999	-999	-999	-999	-999	-999	-999	2	0	2	1622	2704	1	0	1	1	
20200157	1	7.1.2019	1	22	2	3	1	1	2	1	1	2	-999	-999	-999	-999	-999	-999	-999	-999	-999	-999	-999	-999	-999	-999	-999	-999	-999	-999	-999	-999	-999	-999	-999	-999	-999	-999	-999	-999	-999	-999	-999	-999	-999	-999	-999	-999	-999	-999	-999	-999	-999	-999	1	1	1	2486	2335	1	0	1	1	
20200157	1	7.1.2019	1	23	0	0	0	1	3	2	3	0	-999	-999	-999	-999	-999	-999	-999	-999	-999	-999	-999	-999	-999	-999	-999	-999	-999	-999	-999	-999	-999	-999	-999	-999	-999	-999	-999	-999	-999	-999	-999	-999	-999	-999	-999	-999	-999	-999	-999	-999	-999	-999	0	3	1	1925	-999	0	-999	1	-999	
20200157	1	7.1.2019	2	0	3	0	1	0	0	2	3	1	1	1	2	1	0	0	-999	-999	-999	-999	-999	-999	-999	-999	-999	-999	-999	-999	-999	-999	-999	-999	-999	-999	-999	-999	-999	-999	-999	-999	-999	-999	-999	-999	-999	-999	-999	-999	-999	-999	-999	-999	1	2	5	1881	-999	0	-999	1	-999	
20200157	1	7.1.2019	2	1	2	3	3	3	0	3	2	1	0	0	3	0	1	1	-999	-999	-999	-999	-999	-999	-999	-999	-999	-999	-999	-999	-999	-999	-999	-999	-999	-999	-999	-999	-999	-999	-999	-999	-999	-999	-999	-999	-999	-999	-999	-999	-999	-999	-999	-999	2	3	4	3869	-999	0	-999	0	-999	
20200157	1	7.1.2019	2	2	3	3	3	0	0	2	1	1	0	1	2	1	2	2	-999	-999	-999	-999	-999	-999	-999	-999	-999	-999	-999	-999	-999	-999	-999	-999	-999	-999	-999	-999	-999	-999	-999	-999	-999	-999	-999	-999	-999	-999	-999	-999	-999	-999	-999	-999	3	0	5	1769	-999	1	-999	1	0	
20200157	1	7.1.2019	2	3	0	2	1	0	3	2	1	1	0	0	2	2	0	1	-999	-999	-999	-999	-999	-999	-999	-999	-999	-999	-999	-999	-999	-999	-999	-999	-999	-999	-999	-999	-999	-999	-999	-999	-999	-999	-999	-999	-999	-999	-999	-999	-999	-999	-999	-999	1	2	3	2581	1601	1	0	0	-999	
20200157	1	7.1.2019	2	4	2	2	1	3	3	1	2	3	1	0	0	3	3	3	-999	-999	-999	-999	-999	-999	-999	-999	-999	-999	-999	-999	-999	-999	-999	-999	-999	-999	-999	-999	-999	-999	-999	-999	-999	-999	-999	-999	-999	-999	-999	-999	-999	-999	-999	-999	1	0	6	2131	-999	0	-999	0	-999	
20200157	1	7.1.2019	2	5	0	3	0	2	0	1	1	0	2	0	1	1	1	3	-999	-999	-999	-999	-999	-999	-999	-999	-999	-999	-999	-999	-999	-999	-999	-999	-999	-999	-999	-999	-999	-999	-999	-999	-999	-999	-999	-999	-999	-999	-999	-999	-999	-999	-999	-999	1	2	4	2936	1551	1	0	0	-999	
20200157	1	7.1.2019	2	6	2	0	0	0	0	1	0	2	1	1	3	1	3	3	-999	-999	-999	-999	-999	-999	-999	-999	-999	-999	-999	-999	-999	-999	-999	-999	-999	-999	-999	-999	-999	-999	-999	-999	-999	-999	-999	-999	-999	-999	-999	-999	-999	-999	-999	-999	2	3	6	1741	-999	0	-999	1	-999	
20200157	1	7.1.2019	2	7	3	2	2	1	3	0	0	3	0	0	2	3	1	3	-999	-999	-999	-999	-999	-999	-999	-999	-999	-999	-999	-999	-999	-999	-999	-999	-999	-999	-999	-999	-999	-999	-999	-999	-999	-999	-999	-999	-999	-999	-999	-999	-999	-999	-999	-999	3	0	3	2193	1257	1	0	1	0	
20200157	1	7.1.2019	2	8	3	3	0	3	2	1	0	2	2	0	2	3	3	2	-999	-999	-999	-999	-999	-999	-999	-999	-999	-999	-999	-999	-999	-999	-999	-999	-999	-999	-999	-999	-999	-999	-999	-999	-999	-999	-999	-999	-999	-999	-999	-999	-999	-999	-999	-999	3	3	4	2214	1960	1	0	1	1	
20200157	1	7.1.2019	2	9	3	3	3	0	1	0	3	2	0	0	2	3	2	2	-999	-999	-999	-999	-999	-999	-999	-999	-999	-999	-999	-999	-999	-999	-999	-999	-999	-999	-999	-999	-999	-999	-999	-999	-999	-999	-999	-999	-999	-999	-999	-999	-999	-999	-999	-999	3	3	1	2331	-999	1	-999	1	0	
20200157	1	7.1.2019	2	10	3	2	2	0	1	0	1	1	0	2	1	2	3	3	-999	-999	-999	-999	-999	-999	-999	-999	-999	-999	-999	-999	-999	-999	-999	-999	-999	-999	-999	-999	-999	-999	-999	-999	-999	-999	-999	-999	-999	-999	-999	-999	-999	-999	-999	-999	3	3	3	2728	1447	1	0	1	1	
20200157	1	7.1.2019	2	11	1	0	1	2	3	0	3	1	2	3	2	0	3	2	-999	-999	-999	-999	-999	-999	-999	-999	-999	-999	-999	-999	-999	-999	-999	-999	-999	-999	-999	-999	-999	-999	-999	-999	-999	-999	-999	-999	-999	-999	-999	-999	-999	-999	-999	-999	2	1	1	1989	-999	0	-999	1	-999	
20200157	1	7.1.2019	2	12	0	3	2	0	3	2	2	2	3	3	3	1	1	2	-999	-999	-999	-999	-999	-999	-999	-999	-999	-999	-999	-999	-999	-999	-999	-999	-999	-999	-999	-999	-999	-999	-999	-999	-999	-999	-999	-999	-999	-999	-999	-999	-999	-999	-999	-999	3	1	6	2026	-999	0	-999	0	-999	
20200157	1	7.1.2019	2	13	3	1	0	3	0	1	2	2	1	3	1	1	1	0	-999	-999	-999	-999	-999	-999	-999	-999	-999	-999	-999	-999	-999	-999	-999	-999	-999	-999	-999	-999	-999	-999	-999	-999	-999	-999	-999	-999	-999	-999	-999	-999	-999	-999	-999	-999	0	0	7	1782	-999	0	-999	1	-999	
20200157	1	7.1.2019	2	14	2	0	3	3	2	3	3	2	1	0	3	1	0	2	-999	-999	-999	-999	-999	-999	-999	-999	-999	-999	-999	-999	-999	-999	-999	-999	-999	-999	-999	-999	-999	-999	-999	-999	-999	-999	-999	-999	-999	-999	-999	-999	-999	-999	-999	-999	2	2	3	1658	-999	0	-999	1	-999	
20200157	1	7.1.2019	2	15	1	0	0	2	0	3	2	1	2	2	1	2	1	1	-999	-999	-999	-999	-999	-999	-999	-999	-999	-999	-999	-999	-999	-999	-999	-999	-999	-999	-999	-999	-999	-999	-999	-999	-999	-999	-999	-999	-999	-999	-999	-999	-999	-999	-999	-999	2	1	4	2303	2311	1	0	1	0	
20200157	1	7.1.2019	2	16	0	3	1	0	3	3	3	0	1	3	2	0	3	2	-999	-999	-999	-999	-999	-999	-999	-999	-999	-999	-999	-999	-999	-999	-999	-999	-999	-999	-999	-999	-999	-999	-999	-999	-999	-999	-999	-999	-999	-999	-999	-999	-999	-999	-999	-999	0	0	3	1612	863	1	1	0	-999	
20200157	1	7.1.2019	2	17	1	3	2	3	0	0	2	0	2	2	1	0	0	1	-999	-999	-999	-999	-999	-999	-999	-999	-999	-999	-999	-999	-999	-999	-999	-999	-999	-999	-999	-999	-999	-999	-999	-999	-999	-999	-999	-999	-999	-999	-999	-999	-999	-999	-999	-999	2	2	2	2049	1536	1	0	1	1	
20200157	1	7.1.2019	2	18	3	0	0	2	2	2	1	3	0	1	3	1	0	0	-999	-999	-999	-999	-999	-999	-999	-999	-999	-999	-999	-999	-999	-999	-999	-999	-999	-999	-999	-999	-999	-999	-999	-999	-999	-999	-999	-999	-999	-999	-999	-999	-999	-999	-999	-999	0	2	2	2030	-999	1	-999	1	0	
20200157	1	7.1.2019	2	19	3	0	0	0	0	1	3	1	0	2	1	1	2	2	-999	-999	-999	-999	-999	-999	-999	-999	-999	-999	-999	-999	-999	-999	-999	-999	-999	-999	-999	-999	-999	-999	-999	-999	-999	-999	-999	-999	-999	-999	-999	-999	-999	-999	-999	-999	1	3	2	1771	-999	0	-999	1	-999	
20200157	1	7.1.2019	2	20	0	2	3	1	2	0	1	3	3	2	0	3	1	0	-999	-999	-999	-999	-999	-999	-999	-999	-999	-999	-999	-999	-999	-999	-999	-999	-999	-999	-999	-999	-999	-999	-999	-999	-999	-999	-999	-999	-999	-999	-999	-999	-999	-999	-999	-999	2	0	3	3407	-999	1	-999	1	0	
20200157	1	7.1.2019	2	21	1	3	0	1	1	0	3	2	0	2	0	0	0	3	-999	-999	-999	-999	-999	-999	-999	-999	-999	-999	-999	-999	-999	-999	-999	-999	-999	-999	-999	-999	-999	-999	-999	-999	-999	-999	-999	-999	-999	-999	-999	-999	-999	-999	-999	-999	1	0	6	3636	-999	0	-999	0	-999	
20200157	1	7.1.2019	2	22	3	2	1	0	1	2	0	1	2	2	3	3	3	1	-999	-999	-999	-999	-999	-999	-999	-999	-999	-999	-999	-999	-999	-999	-999	-999	-999	-999	-999	-999	-999	-999	-999	-999	-999	-999	-999	-999	-999	-999	-999	-999	-999	-999	-999	-999	3	3	6	1736	2153	1	0	1	0	
20200157	1	7.1.2019	2	23	2	3	0	1	2	1	2	2	3	2	3	1	3	0	-999	-999	-999	-999	-999	-999	-999	-999	-999	-999	-999	-999	-999	-999	-999	-999	-999	-999	-999	-999	-999	-999	-999	-999	-999	-999	-999	-999	-999	-999	-999	-999	-999	-999	-999	-999	0	1	1	2718	-999	0	-999	0	-999	
20200157	1	7.1.2019	3	0	0	0	2	0	3	1	2	1	3	2	0	2	0	3	-999	-999	-999	-999	-999	-999	-999	-999	-999	-999	-999	-999	-999	-999	-999	-999	-999	-999	-999	-999	-999	-999	-999	-999	-999	-999	-999	-999	-999	-999	-999	-999	-999	-999	-999	-999	2	2	5	1612	-999	0	-999	1	-999	
20200157	1	7.1.2019	3	1	1	2	2	1	0	1	1	0	2	0	3	1	2	2	-999	-999	-999	-999	-999	-999	-999	-999	-999	-999	-999	-999	-999	-999	-999	-999	-999	-999	-999	-999	-999	-999	-999	-999	-999	-999	-999	-999	-999	-999	-999	-999	-999	-999	-999	-999	1	2	1	-999	-999	-999	-999	0	-999	
20200157	1	7.1.2019	3	2	2	2	3	2	0	2	0	3	1	2	1	3	2	0	-999	-999	-999	-999	-999	-999	-999	-999	-999	-999	-999	-999	-999	-999	-999	-999	-999	-999	-999	-999	-999	-999	-999	-999	-999	-999	-999	-999	-999	-999	-999	-999	-999	-999	-999	-999	1	0	4	1729	-999	0	-999	1	-999	
20200157	1	7.1.2019	3	3	1	0	1	2	3	0	2	0	1	3	2	2	2	3	-999	-999	-999	-999	-999	-999	-999	-999	-999	-999	-999	-999	-999	-999	-999	-999	-999	-999	-999	-999	-999	-999	-999	-999	-999	-999	-999	-999	-999	-999	-999	-999	-999	-999	-999	-999	1	0	1	2541	1457	1	0	1	0	
20200157	1	7.1.2019	3	4	0	2	2	1	2	3	0	3	2	2	3	1	3	0	-999	-999	-999	-999	-999	-999	-999	-999	-999	-999	-999	-999	-999	-999	-999	-999	-999	-999	-999	-999	-999	-999	-999	-999	-999	-999	-999	-999	-999	-999	-999	-999	-999	-999	-999	-999	2	1	7	2164	-999	0	-999	0	-999	
20200157	1	7.1.2019	3	5	0	3	1	0	2	0	3	3	2	2	2	3	3	1	-999	-999	-999	-999	-999	-999	-999	-999	-999	-999	-999	-999	-999	-999	-999	-999	-999	-999	-999	-999	-999	-999	-999	-999	-999	-999	-999	-999	-999	-999	-999	-999	-999	-999	-999	-999	2	2	5	3272	-999	0	-999	0	-999	
20200157	1	7.1.2019	3	6	1	3	2	1	1	2	3	0	1	0	1	1	0	3	-999	-999	-999	-999	-999	-999	-999	-999	-999	-999	-999	-999	-999	-999	-999	-999	-999	-999	-999	-999	-999	-999	-999	-999	-999	-999	-999	-999	-999	-999	-999	-999	-999	-999	-999	-999	2	3	7	1740	-999	0	-999	1	-999	
20200157	1	7.1.2019	3	7	1	1	3	0	3	2	0	1	1	3	2	0	1	0	-999	-999	-999	-999	-999	-999	-999	-999	-999	-999	-999	-999	-999	-999	-999	-999	-999	-999	-999	-999	-999	-999	-999	-999	-999	-999	-999	-999	-999	-999	-999	-999	-999	-999	-999	-999	3	2	3	3960	-999	0	-999	0	-999	
20200157	1	7.1.2019	3	8	2	3	0	3	3	0	1	3	0	0	2	2	2	1	-999	-999	-999	-999	-999	-999	-999	-999	-999	-999	-999	-999	-999	-999	-999	-999	-999	-999	-999	-999	-999	-999	-999	-999	-999	-999	-999	-999	-999	-999	-999	-999	-999	-999	-999	-999	2	1	2	1749	1511	1	0	1	1	
20200157	1	7.1.2019	3	9	3	1	1	0	0	0	3	2	3	3	1	1	1	2	-999	-999	-999	-999	-999	-999	-999	-999	-999	-999	-999	-999	-999	-999	-999	-999	-999	-999	-999	-999	-999	-999	-999	-999	-999	-999	-999	-999	-999	-999	-999	-999	-999	-999	-999	-999	3	3	4	1571	2681	1	0	1	1	
20200157	1	7.1.2019	3	10	0	1	2	3	1	1	3	2	1	3	2	1	2	2	-999	-999	-999	-999	-999	-999	-999	-999	-999	-999	-999	-999	-999	-999	-999	-999	-999	-999	-999	-999	-999	-999	-999	-999	-999	-999	-999	-999	-999	-999	-999	-999	-999	-999	-999	-999	3	2	1	2273	-999	0	-999	0	-999	
20200157	1	7.1.2019	3	11	3	1	1	0	0	0	0	1	3	2	3	0	0	2	-999	-999	-999	-999	-999	-999	-999	-999	-999	-999	-999	-999	-999	-999	-999	-999	-999	-999	-999	-999	-999	-999	-999	-999	-999	-999	-999	-999	-999	-999	-999	-999	-999	-999	-999	-999	1	0	2	1806	-999	0	-999	0	-999	
20200157	1	7.1.2019	3	12	1	1	2	1	1	0	2	3	3	3	0	3	0	1	-999	-999	-999	-999	-999	-999	-999	-999	-999	-999	-999	-999	-999	-999	-999	-999	-999	-999	-999	-999	-999	-999	-999	-999	-999	-999	-999	-999	-999	-999	-999	-999	-999	-999	-999	-999	1	1	5	4506	-999	1	-999	1	0	
20200157	1	7.1.2019	3	13	1	0	2	1	0	1	2	3	2	0	3	0	3	2	-999	-999	-999	-999	-999	-999	-999	-999	-999	-999	-999	-999	-999	-999	-999	-999	-999	-999	-999	-999	-999	-999	-999	-999	-999	-999	-999	-999	-999	-999	-999	-999	-999	-999	-999	-999	2	1	2	2166	-999	0	-999	0	-999	
20200157	1	7.1.2019	3	14	1	0	2	2	3	2	0	1	0	0	3	0	1	3	-999	-999	-999	-999	-999	-999	-999	-999	-999	-999	-999	-999	-999	-999	-999	-999	-999	-999	-999	-999	-999	-999	-999	-999	-999	-999	-999	-999	-999	-999	-999	-999	-999	-999	-999	-999	2	3	6	1850	-999	0	-999	1	-999	
20200157	1	7.1.2019	3	15	0	1	2	0	0	0	2	2	0	2	3	2	2	3	-999	-999	-999	-999	-999	-999	-999	-999	-999	-999	-999	-999	-999	-999	-999	-999	-999	-999	-999	-999	-999	-999	-999	-999	-999	-999	-999	-999	-999	-999	-999	-999	-999	-999	-999	-999	2	0	3	2494	1817	1	0	1	1	
20200157	1	7.1.2019	3	16	2	2	1	1	2	1	2	3	0	2	3	2	3	1	-999	-999	-999	-999	-999	-999	-999	-999	-999	-999	-999	-999	-999	-999	-999	-999	-999	-999	-999	-999	-999	-999	-999	-999	-999	-999	-999	-999	-999	-999	-999	-999	-999	-999	-999	-999	2	3	4	4637	-999	1	-999	1	0	
20200157	1	7.1.2019	3	17	1	3	1	1	0	3	1	2	3	1	2	1	2	3	-999	-999	-999	-999	-999	-999	-999	-999	-999	-999	-999	-999	-999	-999	-999	-999	-999	-999	-999	-999	-999	-999	-999	-999	-999	-999	-999	-999	-999	-999	-999	-999	-999	-999	-999	-999	0	2	1	2777	-999	0	-999	1	-999	
20200157	1	7.1.2019	3	18	2	0	1	1	1	0	0	0	1	2	0	3	3	2	-999	-999	-999	-999	-999	-999	-999	-999	-999	-999	-999	-999	-999	-999	-999	-999	-999	-999	-999	-999	-999	-999	-999	-999	-999	-999	-999	-999	-999	-999	-999	-999	-999	-999	-999	-999	0	3	6	1693	1721	1	0	1	0	
20200157	1	7.1.2019	3	19	2	2	2	3	3	3	0	0	0	3	1	2	1	0	-999	-999	-999	-999	-999	-999	-999	-999	-999	-999	-999	-999	-999	-999	-999	-999	-999	-999	-999	-999	-999	-999	-999	-999	-999	-999	-999	-999	-999	-999	-999	-999	-999	-999	-999	-999	1	1	4	2740	-999	0	-999	1	-999	
20200157	1	7.1.2019	3	20	0	2	1	2	3	2	2	0	3	0	1	3	2	1	-999	-999	-999	-999	-999	-999	-999	-999	-999	-999	-999	-999	-999	-999	-999	-999	-999	-999	-999	-999	-999	-999	-999	-999	-999	-999	-999	-999	-999	-999	-999	-999	-999	-999	-999	-999	2	1	7	1840	1343	1	0	1	0	
20200157	1	7.1.2019	3	21	0	2	3	0	1	1	3	3	3	2	1	2	3	1	-999	-999	-999	-999	-999	-999	-999	-999	-999	-999	-999	-999	-999	-999	-999	-999	-999	-999	-999	-999	-999	-999	-999	-999	-999	-999	-999	-999	-999	-999	-999	-999	-999	-999	-999	-999	3	0	3	1725	1488	1	0	1	1	
20200157	1	7.1.2019	3	22	3	3	0	2	1	3	3	1	1	2	2	2	1	0	-999	-999	-999	-999	-999	-999	-999	-999	-999	-999	-999	-999	-999	-999	-999	-999	-999	-999	-999	-999	-999	-999	-999	-999	-999	-999	-999	-999	-999	-999	-999	-999	-999	-999	-999	-999	2	3	2	2498	1521	1	0	0	-999	
20200157	1	7.1.2019	3	23	2	1	1	1	2	2	1	2	3	2	3	1	0	3	-999	-999	-999	-999	-999	-999	-999	-999	-999	-999	-999	-999	-999	-999	-999	-999	-999	-999	-999	-999	-999	-999	-999	-999	-999	-999	-999	-999	-999	-999	-999	-999	-999	-999	-999	-999	2	1	7	1744	1353	1	0	1	1	
20200157	1	7.1.2019	4	0	1	2	0	3	1	1	0	2	-999	-999	-999	-999	-999	-999	-999	-999	-999	-999	-999	-999	-999	-999	-999	-999	-999	-999	-999	-999	-999	-999	-999	-999	-999	-999	-999	-999	-999	-999	-999	-999	-999	-999	-999	-999	-999	-999	-999	-999	-999	-999	0	3	2	1405	3448	1	0	1	0	
20200157	1	7.1.2019	4	1	1	2	0	1	3	3	0	2	-999	-999	-999	-999	-999	-999	-999	-999	-999	-999	-999	-999	-999	-999	-999	-999	-999	-999	-999	-999	-999	-999	-999	-999	-999	-999	-999	-999	-999	-999	-999	-999	-999	-999	-999	-999	-999	-999	-999	-999	-999	-999	2	2	1	3140	-999	0	-999	1	-999	
20200157	1	7.1.2019	4	2	2	0	2	3	3	2	1	0	-999	-999	-999	-999	-999	-999	-999	-999	-999	-999	-999	-999	-999	-999	-999	-999	-999	-999	-999	-999	-999	-999	-999	-999	-999	-999	-999	-999	-999	-999	-999	-999	-999	-999	-999	-999	-999	-999	-999	-999	-999	-999	2	0	1	1354	2425	1	0	1	0	
20200157	1	7.1.2019	4	3	2	0	1	3	1	2	2	1	-999	-999	-999	-999	-999	-999	-999	-999	-999	-999	-999	-999	-999	-999	-999	-999	-999	-999	-999	-999	-999	-999	-999	-999	-999	-999	-999	-999	-999	-999	-999	-999	-999	-999	-999	-999	-999	-999	-999	-999	-999	-999	0	3	1	2419	-999	0	-999	1	-999	
20200157	1	7.1.2019	4	4	3	3	1	1	1	0	3	1	-999	-999	-999	-999	-999	-999	-999	-999	-999	-999	-999	-999	-999	-999	-999	-999	-999	-999	-999	-999	-999	-999	-999	-999	-999	-999	-999	-999	-999	-999	-999	-999	-999	-999	-999	-999	-999	-999	-999	-999	-999	-999	3	3	3	1585	1799	1	0	1	1	
20200157	1	7.1.2019	4	5	2	0	2	1	0	1	0	0	-999	-999	-999	-999	-999	-999	-999	-999	-999	-999	-999	-999	-999	-999	-999	-999	-999	-999	-999	-999	-999	-999	-999	-999	-999	-999	-999	-999	-999	-999	-999	-999	-999	-999	-999	-999	-999	-999	-999	-999	-999	-999	2	0	1	1616	800	1	0	1	0	
20200157	1	7.1.2019	4	6	0	2	3	0	2	1	0	3	-999	-999	-999	-999	-999	-999	-999	-999	-999	-999	-999	-999	-999	-999	-999	-999	-999	-999	-999	-999	-999	-999	-999	-999	-999	-999	-999	-999	-999	-999	-999	-999	-999	-999	-999	-999	-999	-999	-999	-999	-999	-999	0	3	2	1919	1489	1	0	1	1	
20200157	1	7.1.2019	4	7	2	1	0	1	0	2	3	1	-999	-999	-999	-999	-999	-999	-999	-999	-999	-999	-999	-999	-999	-999	-999	-999	-999	-999	-999	-999	-999	-999	-999	-999	-999	-999	-999	-999	-999	-999	-999	-999	-999	-999	-999	-999	-999	-999	-999	-999	-999	-999	2	1	1	1391	1233	1	0	1	0	
20200157	1	7.1.2019	4	8	3	3	0	2	2	2	3	1	-999	-999	-999	-999	-999	-999	-999	-999	-999	-999	-999	-999	-999	-999	-999	-999	-999	-999	-999	-999	-999	-999	-999	-999	-999	-999	-999	-999	-999	-999	-999	-999	-999	-999	-999	-999	-999	-999	-999	-999	-999	-999	0	2	1	1456	1280	1	0	1	1	
20200157	1	7.1.2019	4	9	3	0	0	2	3	1	1	0	-999	-999	-999	-999	-999	-999	-999	-999	-999	-999	-999	-999	-999	-999	-999	-999	-999	-999	-999	-999	-999	-999	-999	-999	-999	-999	-999	-999	-999	-999	-999	-999	-999	-999	-999	-999	-999	-999	-999	-999	-999	-999	2	1	3	2095	-999	0	-999	1	-999	
20200157	1	7.1.2019	4	10	2	1	1	3	3	2	1	1	-999	-999	-999	-999	-999	-999	-999	-999	-999	-999	-999	-999	-999	-999	-999	-999	-999	-999	-999	-999	-999	-999	-999	-999	-999	-999	-999	-999	-999	-999	-999	-999	-999	-999	-999	-999	-999	-999	-999	-999	-999	-999	0	0	3	2357	-999	0	-999	1	-999	
20200157	1	7.1.2019	4	11	0	3	3	3	3	1	1	1	-999	-999	-999	-999	-999	-999	-999	-999	-999	-999	-999	-999	-999	-999	-999	-999	-999	-999	-999	-999	-999	-999	-999	-999	-999	-999	-999	-999	-999	-999	-999	-999	-999	-999	-999	-999	-999	-999	-999	-999	-999	-999	3	1	4	1876	1512	1	0	1	1	
20200157	1	7.1.2019	4	12	0	3	1	3	3	0	3	3	-999	-999	-999	-999	-999	-999	-999	-999	-999	-999	-999	-999	-999	-999	-999	-999	-999	-999	-999	-999	-999	-999	-999	-999	-999	-999	-999	-999	-999	-999	-999	-999	-999	-999	-999	-999	-999	-999	-999	-999	-999	-999	1	2	3	1923	-999	0	-999	1	-999	
20200157	1	7.1.2019	4	13	2	2	1	1	0	3	2	3	-999	-999	-999	-999	-999	-999	-999	-999	-999	-999	-999	-999	-999	-999	-999	-999	-999	-999	-999	-999	-999	-999	-999	-999	-999	-999	-999	-999	-999	-999	-999	-999	-999	-999	-999	-999	-999	-999	-999	-999	-999	-999	2	2	3	1441	1481	1	0	1	1	
20200157	1	7.1.2019	4	14	0	0	3	1	2	3	1	1	-999	-999	-999	-999	-999	-999	-999	-999	-999	-999	-999	-999	-999	-999	-999	-999	-999	-999	-999	-999	-999	-999	-999	-999	-999	-999	-999	-999	-999	-999	-999	-999	-999	-999	-999	-999	-999	-999	-999	-999	-999	-999	0	0	1	1610	991	1	0	1	0	
20200157	1	7.1.2019	4	15	1	0	2	1	0	2	1	2	-999	-999	-999	-999	-999	-999	-999	-999	-999	-999	-999	-999	-999	-999	-999	-999	-999	-999	-999	-999	-999	-999	-999	-999	-999	-999	-999	-999	-999	-999	-999	-999	-999	-999	-999	-999	-999	-999	-999	-999	-999	-999	1	1	1	1729	-999	0	-999	1	-999	
20200157	1	7.1.2019	4	16	0	1	0	3	2	0	2	3	-999	-999	-999	-999	-999	-999	-999	-999	-999	-999	-999	-999	-999	-999	-999	-999	-999	-999	-999	-999	-999	-999	-999	-999	-999	-999	-999	-999	-999	-999	-999	-999	-999	-999	-999	-999	-999	-999	-999	-999	-999	-999	0	3	1	1591	1352	1	0	1	1	
20200157	1	7.1.2019	4	17	1	2	2	2	0	2	3	0	-999	-999	-999	-999	-999	-999	-999	-999	-999	-999	-999	-999	-999	-999	-999	-999	-999	-999	-999	-999	-999	-999	-999	-999	-999	-999	-999	-999	-999	-999	-999	-999	-999	-999	-999	-999	-999	-999	-999	-999	-999	-999	0	1	2	1750	865	0	0	1	-999	
20200157	1	7.1.2019	4	18	2	1	2	0	3	1	2	3	-999	-999	-999	-999	-999	-999	-999	-999	-999	-999	-999	-999	-999	-999	-999	-999	-999	-999	-999	-999	-999	-999	-999	-999	-999	-999	-999	-999	-999	-999	-999	-999	-999	-999	-999	-999	-999	-999	-999	-999	-999	-999	1	3	2	2254	-999	0	-999	1	-999	
20200157	1	7.1.2019	4	19	3	1	2	1	3	0	0	1	-999	-999	-999	-999	-999	-999	-999	-999	-999	-999	-999	-999	-999	-999	-999	-999	-999	-999	-999	-999	-999	-999	-999	-999	-999	-999	-999	-999	-999	-999	-999	-999	-999	-999	-999	-999	-999	-999	-999	-999	-999	-999	3	1	2	1589	2840	1	0	1	1	
20200157	1	7.1.2019	4	20	2	1	0	0	3	2	1	0	-999	-999	-999	-999	-999	-999	-999	-999	-999	-999	-999	-999	-999	-999	-999	-999	-999	-999	-999	-999	-999	-999	-999	-999	-999	-999	-999	-999	-999	-999	-999	-999	-999	-999	-999	-999	-999	-999	-999	-999	-999	-999	0	3	2	1748	-999	0	-999	1	-999	
20200157	1	7.1.2019	4	21	2	0	1	3	1	0	0	3	-999	-999	-999	-999	-999	-999	-999	-999	-999	-999	-999	-999	-999	-999	-999	-999	-999	-999	-999	-999	-999	-999	-999	-999	-999	-999	-999	-999	-999	-999	-999	-999	-999	-999	-999	-999	-999	-999	-999	-999	-999	-999	2	0	1	1506	1217	1	0	1	0	
20200157	1	7.1.2019	4	22	2	3	1	2	3	1	3	0	-999	-999	-999	-999	-999	-999	-999	-999	-999	-999	-999	-999	-999	-999	-999	-999	-999	-999	-999	-999	-999	-999	-999	-999	-999	-999	-999	-999	-999	-999	-999	-999	-999	-999	-999	-999	-999	-999	-999	-999	-999	-999	2	1	3	3467	-999	0	-999	1	-999	
20200157	1	7.1.2019	4	23	2	1	1	2	2	0	0	2	-999	-999	-999	-999	-999	-999	-999	-999	-999	-999	-999	-999	-999	-999	-999	-999	-999	-999	-999	-999	-999	-999	-999	-999	-999	-999	-999	-999	-999	-999	-999	-999	-999	-999	-999	-999	-999	-999	-999	-999	-999	-999	2	1	1	1793	1161	1	0	1	0	
