VPID	SESSION_ID	DATE	BLOCK	TRIAL	PX0	PY0	PX1	PY1	PX2	PY2	PX3	PY3	PX4	PY4	PX5	PY5	PX6	PY6	PX7	PY7	PX8	PY8	PX9	PY9	PX10	PY10	PX11	PY11	PX12	PY12	PX13	PY13	PX14	PY14	PX15	PY15	PX16	PY16	PX17	PY17	PX18	PY18	PX19	PY19	PX20	PY20	PX21	PY21	PX22	PY22	PX23	PY23	PX24	PY24	AX	AY	AD	RT1	RT2	Resp1	Resp2	Corr1	Corr2
20200218	1	10.5.2019	0	0	1	2	3	1	2	3	0	1	-999	-999	-999	-999	-999	-999	-999	-999	-999	-999	-999	-999	-999	-999	-999	-999	-999	-999	-999	-999	-999	-999	-999	-999	-999	-999	-999	-999	-999	-999	-999	-999	-999	-999	-999	-999	-999	-999	-999	-999	-999	-999	3	1	2	1845	-999	0	-999	0	-999	
20200218	1	10.5.2019	0	1	3	2	1	2	2	0	2	1	-999	-999	-999	-999	-999	-999	-999	-999	-999	-999	-999	-999	-999	-999	-999	-999	-999	-999	-999	-999	-999	-999	-999	-999	-999	-999	-999	-999	-999	-999	-999	-999	-999	-999	-999	-999	-999	-999	-999	-999	-999	-999	1	2	2	1691	2568	1	1	1	1	
20200218	1	10.5.2019	0	2	2	1	0	0	1	2	3	0	2	0	1	3	3	3	-999	-999	-999	-999	-999	-999	-999	-999	-999	-999	-999	-999	-999	-999	-999	-999	-999	-999	-999	-999	-999	-999	-999	-999	-999	-999	-999	-999	-999	-999	-999	-999	-999	-999	-999	-999	3	3	3	3336	-999	1	-999	1	0	
20200218	1	10.5.2019	0	3	0	3	3	2	3	3	1	3	0	2	2	1	0	0	-999	-999	-999	-999	-999	-999	-999	-999	-999	-999	-999	-999	-999	-999	-999	-999	-999	-999	-999	-999	-999	-999	-999	-999	-999	-999	-999	-999	-999	-999	-999	-999	-999	-999	-999	-999	0	2	7	1445	1841	1	0	1	1	
20200218	1	10.5.2019	1	0	1	1	2	2	2	1	2	3	-999	-999	-999	-999	-999	-999	-999	-999	-999	-999	-999	-999	-999	-999	-999	-999	-999	-999	-999	-999	-999	-999	-999	-999	-999	-999	-999	-999	-999	-999	-999	-999	-999	-999	-999	-999	-999	-999	-999	-999	-999	-999	2	2	2	1602	2049	1	1	1	1	
20200218	1	10.5.2019	1	1	2	3	1	1	3	2	0	3	-999	-999	-999	-999	-999	-999	-999	-999	-999	-999	-999	-999	-999	-999	-999	-999	-999	-999	-999	-999	-999	-999	-999	-999	-999	-999	-999	-999	-999	-999	-999	-999	-999	-999	-999	-999	-999	-999	-999	-999	-999	-999	1	3	4	1426	-999	0	-999	1	-999	
20200218	1	10.5.2019	1	2	3	2	1	0	3	0	2	0	-999	-999	-999	-999	-999	-999	-999	-999	-999	-999	-999	-999	-999	-999	-999	-999	-999	-999	-999	-999	-999	-999	-999	-999	-999	-999	-999	-999	-999	-999	-999	-999	-999	-999	-999	-999	-999	-999	-999	-999	-999	-999	3	2	1	1440	912	1	1	1	1	
20200218	1	10.5.2019	1	3	0	0	2	0	3	3	0	3	-999	-999	-999	-999	-999	-999	-999	-999	-999	-999	-999	-999	-999	-999	-999	-999	-999	-999	-999	-999	-999	-999	-999	-999	-999	-999	-999	-999	-999	-999	-999	-999	-999	-999	-999	-999	-999	-999	-999	-999	-999	-999	3	3	4	1296	1503	1	0	1	1	
20200218	1	10.5.2019	1	4	2	2	1	0	2	0	0	3	-999	-999	-999	-999	-999	-999	-999	-999	-999	-999	-999	-999	-999	-999	-999	-999	-999	-999	-999	-999	-999	-999	-999	-999	-999	-999	-999	-999	-999	-999	-999	-999	-999	-999	-999	-999	-999	-999	-999	-999	-999	-999	0	1	2	1423	-999	0	-999	1	-999	
20200218	1	10.5.2019	1	5	3	2	0	3	1	2	3	1	-999	-999	-999	-999	-999	-999	-999	-999	-999	-999	-999	-999	-999	-999	-999	-999	-999	-999	-999	-999	-999	-999	-999	-999	-999	-999	-999	-999	-999	-999	-999	-999	-999	-999	-999	-999	-999	-999	-999	-999	-999	-999	3	2	1	1165	1049	1	1	1	1	
20200218	1	10.5.2019	1	6	2	0	3	2	3	3	0	3	-999	-999	-999	-999	-999	-999	-999	-999	-999	-999	-999	-999	-999	-999	-999	-999	-999	-999	-999	-999	-999	-999	-999	-999	-999	-999	-999	-999	-999	-999	-999	-999	-999	-999	-999	-999	-999	-999	-999	-999	-999	-999	3	3	4	1678	1151	1	0	1	1	
20200218	1	10.5.2019	1	7	0	1	1	0	0	0	3	0	-999	-999	-999	-999	-999	-999	-999	-999	-999	-999	-999	-999	-999	-999	-999	-999	-999	-999	-999	-999	-999	-999	-999	-999	-999	-999	-999	-999	-999	-999	-999	-999	-999	-999	-999	-999	-999	-999	-999	-999	-999	-999	0	1	1	1317	3056	1	1	1	1	
20200218	1	10.5.2019	1	8	1	2	0	1	2	3	0	2	-999	-999	-999	-999	-999	-999	-999	-999	-999	-999	-999	-999	-999	-999	-999	-999	-999	-999	-999	-999	-999	-999	-999	-999	-999	-999	-999	-999	-999	-999	-999	-999	-999	-999	-999	-999	-999	-999	-999	-999	-999	-999	1	2	3	1245	1104	1	0	1	1	
20200218	1	10.5.2019	1	9	0	0	3	1	3	0	0	3	-999	-999	-999	-999	-999	-999	-999	-999	-999	-999	-999	-999	-999	-999	-999	-999	-999	-999	-999	-999	-999	-999	-999	-999	-999	-999	-999	-999	-999	-999	-999	-999	-999	-999	-999	-999	-999	-999	-999	-999	-999	-999	0	3	4	1717	751	1	0	1	0	
20200218	1	10.5.2019	1	10	0	2	2	3	2	1	2	2	-999	-999	-999	-999	-999	-999	-999	-999	-999	-999	-999	-999	-999	-999	-999	-999	-999	-999	-999	-999	-999	-999	-999	-999	-999	-999	-999	-999	-999	-999	-999	-999	-999	-999	-999	-999	-999	-999	-999	-999	-999	-999	1	2	4	1636	-999	0	-999	1	-999	
20200218	1	10.5.2019	1	11	1	1	3	3	3	1	0	2	-999	-999	-999	-999	-999	-999	-999	-999	-999	-999	-999	-999	-999	-999	-999	-999	-999	-999	-999	-999	-999	-999	-999	-999	-999	-999	-999	-999	-999	-999	-999	-999	-999	-999	-999	-999	-999	-999	-999	-999	-999	-999	3	3	2	1530	2256	1	0	1	0	
20200218	1	10.5.2019	1	12	0	2	3	1	1	1	2	0	-999	-999	-999	-999	-999	-999	-999	-999	-999	-999	-999	-999	-999	-999	-999	-999	-999	-999	-999	-999	-999	-999	-999	-999	-999	-999	-999	-999	-999	-999	-999	-999	-999	-999	-999	-999	-999	-999	-999	-999	-999	-999	2	0	1	1450	1311	1	0	1	1	
20200218	1	10.5.2019	1	13	0	0	2	1	0	3	1	1	-999	-999	-999	-999	-999	-999	-999	-999	-999	-999	-999	-999	-999	-999	-999	-999	-999	-999	-999	-999	-999	-999	-999	-999	-999	-999	-999	-999	-999	-999	-999	-999	-999	-999	-999	-999	-999	-999	-999	-999	-999	-999	2	1	2	1433	1624	1	1	1	1	
20200218	1	10.5.2019	1	14	2	2	1	1	1	3	0	3	-999	-999	-999	-999	-999	-999	-999	-999	-999	-999	-999	-999	-999	-999	-999	-999	-999	-999	-999	-999	-999	-999	-999	-999	-999	-999	-999	-999	-999	-999	-999	-999	-999	-999	-999	-999	-999	-999	-999	-999	-999	-999	1	3	2	1745	-999	0	-999	0	-999	
20200218	1	10.5.2019	1	15	1	1	2	3	3	0	1	3	-999	-999	-999	-999	-999	-999	-999	-999	-999	-999	-999	-999	-999	-999	-999	-999	-999	-999	-999	-999	-999	-999	-999	-999	-999	-999	-999	-999	-999	-999	-999	-999	-999	-999	-999	-999	-999	-999	-999	-999	-999	-999	3	0	3	1231	1032	1	1	1	1	
20200218	1	10.5.2019	1	16	0	1	3	0	1	1	2	0	-999	-999	-999	-999	-999	-999	-999	-999	-999	-999	-999	-999	-999	-999	-999	-999	-999	-999	-999	-999	-999	-999	-999	-999	-999	-999	-999	-999	-999	-999	-999	-999	-999	-999	-999	-999	-999	-999	-999	-999	-999	-999	0	1	3	1550	1136	1	0	1	1	
20200218	1	10.5.2019	1	17	0	1	3	1	1	3	0	0	-999	-999	-999	-999	-999	-999	-999	-999	-999	-999	-999	-999	-999	-999	-999	-999	-999	-999	-999	-999	-999	-999	-999	-999	-999	-999	-999	-999	-999	-999	-999	-999	-999	-999	-999	-999	-999	-999	-999	-999	-999	-999	1	3	3	2014	2129	1	1	1	1	
20200218	1	10.5.2019	1	18	3	1	2	3	0	3	0	0	-999	-999	-999	-999	-999	-999	-999	-999	-999	-999	-999	-999	-999	-999	-999	-999	-999	-999	-999	-999	-999	-999	-999	-999	-999	-999	-999	-999	-999	-999	-999	-999	-999	-999	-999	-999	-999	-999	-999	-999	-999	-999	2	3	1	894	936	1	0	1	1	
20200218	1	10.5.2019	1	19	2	1	0	1	0	2	1	3	-999	-999	-999	-999	-999	-999	-999	-999	-999	-999	-999	-999	-999	-999	-999	-999	-999	-999	-999	-999	-999	-999	-999	-999	-999	-999	-999	-999	-999	-999	-999	-999	-999	-999	-999	-999	-999	-999	-999	-999	-999	-999	1	2	4	1441	-999	0	-999	1	-999	
20200218	1	10.5.2019	1	20	3	3	0	0	3	2	1	1	-999	-999	-999	-999	-999	-999	-999	-999	-999	-999	-999	-999	-999	-999	-999	-999	-999	-999	-999	-999	-999	-999	-999	-999	-999	-999	-999	-999	-999	-999	-999	-999	-999	-999	-999	-999	-999	-999	-999	-999	-999	-999	2	1	4	1792	-999	0	-999	1	-999	
20200218	1	10.5.2019	1	21	3	2	2	2	2	0	2	3	-999	-999	-999	-999	-999	-999	-999	-999	-999	-999	-999	-999	-999	-999	-999	-999	-999	-999	-999	-999	-999	-999	-999	-999	-999	-999	-999	-999	-999	-999	-999	-999	-999	-999	-999	-999	-999	-999	-999	-999	-999	-999	2	0	2	1510	1352	1	0	1	1	
20200218	1	10.5.2019	1	22	2	3	1	1	2	1	1	2	-999	-999	-999	-999	-999	-999	-999	-999	-999	-999	-999	-999	-999	-999	-999	-999	-999	-999	-999	-999	-999	-999	-999	-999	-999	-999	-999	-999	-999	-999	-999	-999	-999	-999	-999	-999	-999	-999	-999	-999	-999	-999	1	1	1	1134	1369	1	0	1	1	
20200218	1	10.5.2019	1	23	0	0	0	1	3	2	3	0	-999	-999	-999	-999	-999	-999	-999	-999	-999	-999	-999	-999	-999	-999	-999	-999	-999	-999	-999	-999	-999	-999	-999	-999	-999	-999	-999	-999	-999	-999	-999	-999	-999	-999	-999	-999	-999	-999	-999	-999	-999	-999	0	3	1	1174	-999	0	-999	1	-999	
20200218	1	10.5.2019	2	0	3	0	1	0	0	2	3	1	1	1	2	1	0	0	-999	-999	-999	-999	-999	-999	-999	-999	-999	-999	-999	-999	-999	-999	-999	-999	-999	-999	-999	-999	-999	-999	-999	-999	-999	-999	-999	-999	-999	-999	-999	-999	-999	-999	-999	-999	1	2	5	1315	-999	0	-999	1	-999	
20200218	1	10.5.2019	2	1	2	3	3	3	0	3	2	1	0	0	3	0	1	1	-999	-999	-999	-999	-999	-999	-999	-999	-999	-999	-999	-999	-999	-999	-999	-999	-999	-999	-999	-999	-999	-999	-999	-999	-999	-999	-999	-999	-999	-999	-999	-999	-999	-999	-999	-999	2	3	4	3656	-999	1	-999	1	0	
20200218	1	10.5.2019	2	2	3	3	3	0	0	2	1	1	0	1	2	1	2	2	-999	-999	-999	-999	-999	-999	-999	-999	-999	-999	-999	-999	-999	-999	-999	-999	-999	-999	-999	-999	-999	-999	-999	-999	-999	-999	-999	-999	-999	-999	-999	-999	-999	-999	-999	-999	3	0	5	1404	-999	0	-999	0	-999	
20200218	1	10.5.2019	2	3	0	2	1	0	3	2	1	1	0	0	2	2	0	1	-999	-999	-999	-999	-999	-999	-999	-999	-999	-999	-999	-999	-999	-999	-999	-999	-999	-999	-999	-999	-999	-999	-999	-999	-999	-999	-999	-999	-999	-999	-999	-999	-999	-999	-999	-999	1	2	3	1472	-999	0	-999	1	-999	
20200218	1	10.5.2019	2	4	2	2	1	3	3	1	2	3	1	0	0	3	3	3	-999	-999	-999	-999	-999	-999	-999	-999	-999	-999	-999	-999	-999	-999	-999	-999	-999	-999	-999	-999	-999	-999	-999	-999	-999	-999	-999	-999	-999	-999	-999	-999	-999	-999	-999	-999	1	0	6	1052	-999	0	-999	0	-999	
20200218	1	10.5.2019	2	5	0	3	0	2	0	1	1	0	2	0	1	1	1	3	-999	-999	-999	-999	-999	-999	-999	-999	-999	-999	-999	-999	-999	-999	-999	-999	-999	-999	-999	-999	-999	-999	-999	-999	-999	-999	-999	-999	-999	-999	-999	-999	-999	-999	-999	-999	1	2	4	1296	-999	0	-999	1	-999	
20200218	1	10.5.2019	2	6	2	0	0	0	0	1	0	2	1	1	3	1	3	3	-999	-999	-999	-999	-999	-999	-999	-999	-999	-999	-999	-999	-999	-999	-999	-999	-999	-999	-999	-999	-999	-999	-999	-999	-999	-999	-999	-999	-999	-999	-999	-999	-999	-999	-999	-999	2	3	6	1013	-999	0	-999	1	-999	
20200218	1	10.5.2019	2	7	3	2	2	1	3	0	0	3	0	0	2	3	1	3	-999	-999	-999	-999	-999	-999	-999	-999	-999	-999	-999	-999	-999	-999	-999	-999	-999	-999	-999	-999	-999	-999	-999	-999	-999	-999	-999	-999	-999	-999	-999	-999	-999	-999	-999	-999	3	0	3	2729	2064	1	1	1	1	
20200218	1	10.5.2019	2	8	3	3	0	3	2	1	0	2	2	0	2	3	3	2	-999	-999	-999	-999	-999	-999	-999	-999	-999	-999	-999	-999	-999	-999	-999	-999	-999	-999	-999	-999	-999	-999	-999	-999	-999	-999	-999	-999	-999	-999	-999	-999	-999	-999	-999	-999	3	3	4	943	2065	1	0	1	1	
20200218	1	10.5.2019	2	9	3	3	3	0	1	0	3	2	0	0	2	3	2	2	-999	-999	-999	-999	-999	-999	-999	-999	-999	-999	-999	-999	-999	-999	-999	-999	-999	-999	-999	-999	-999	-999	-999	-999	-999	-999	-999	-999	-999	-999	-999	-999	-999	-999	-999	-999	3	3	1	1085	1264	1	1	1	1	
20200218	1	10.5.2019	2	10	3	2	2	0	1	0	1	1	0	2	1	2	3	3	-999	-999	-999	-999	-999	-999	-999	-999	-999	-999	-999	-999	-999	-999	-999	-999	-999	-999	-999	-999	-999	-999	-999	-999	-999	-999	-999	-999	-999	-999	-999	-999	-999	-999	-999	-999	3	3	3	786	1144	1	0	1	1	
20200218	1	10.5.2019	2	11	1	0	1	2	3	0	3	1	2	3	2	0	3	2	-999	-999	-999	-999	-999	-999	-999	-999	-999	-999	-999	-999	-999	-999	-999	-999	-999	-999	-999	-999	-999	-999	-999	-999	-999	-999	-999	-999	-999	-999	-999	-999	-999	-999	-999	-999	2	1	1	1197	-999	0	-999	1	-999	
20200218	1	10.5.2019	2	12	0	3	2	0	3	2	2	2	3	3	3	1	1	2	-999	-999	-999	-999	-999	-999	-999	-999	-999	-999	-999	-999	-999	-999	-999	-999	-999	-999	-999	-999	-999	-999	-999	-999	-999	-999	-999	-999	-999	-999	-999	-999	-999	-999	-999	-999	3	1	6	1849	-999	0	-999	0	-999	
20200218	1	10.5.2019	2	13	3	1	0	3	0	1	2	2	1	3	1	1	1	0	-999	-999	-999	-999	-999	-999	-999	-999	-999	-999	-999	-999	-999	-999	-999	-999	-999	-999	-999	-999	-999	-999	-999	-999	-999	-999	-999	-999	-999	-999	-999	-999	-999	-999	-999	-999	0	0	7	1005	-999	0	-999	1	-999	
20200218	1	10.5.2019	2	14	2	0	3	3	2	3	3	2	1	0	3	1	0	2	-999	-999	-999	-999	-999	-999	-999	-999	-999	-999	-999	-999	-999	-999	-999	-999	-999	-999	-999	-999	-999	-999	-999	-999	-999	-999	-999	-999	-999	-999	-999	-999	-999	-999	-999	-999	2	2	3	2041	-999	0	-999	1	-999	
20200218	1	10.5.2019	2	15	1	0	0	2	0	3	2	1	2	2	1	2	1	1	-999	-999	-999	-999	-999	-999	-999	-999	-999	-999	-999	-999	-999	-999	-999	-999	-999	-999	-999	-999	-999	-999	-999	-999	-999	-999	-999	-999	-999	-999	-999	-999	-999	-999	-999	-999	2	1	4	829	1136	1	1	1	1	
20200218	1	10.5.2019	2	16	0	3	1	0	3	3	3	0	1	3	2	0	3	2	-999	-999	-999	-999	-999	-999	-999	-999	-999	-999	-999	-999	-999	-999	-999	-999	-999	-999	-999	-999	-999	-999	-999	-999	-999	-999	-999	-999	-999	-999	-999	-999	-999	-999	-999	-999	0	0	3	1307	-999	0	-999	1	-999	
20200218	1	10.5.2019	2	17	1	3	2	3	0	0	2	0	2	2	1	0	0	1	-999	-999	-999	-999	-999	-999	-999	-999	-999	-999	-999	-999	-999	-999	-999	-999	-999	-999	-999	-999	-999	-999	-999	-999	-999	-999	-999	-999	-999	-999	-999	-999	-999	-999	-999	-999	2	2	2	1263	1432	1	1	1	0	
20200218	1	10.5.2019	2	18	3	0	0	2	2	2	1	3	0	1	3	1	0	0	-999	-999	-999	-999	-999	-999	-999	-999	-999	-999	-999	-999	-999	-999	-999	-999	-999	-999	-999	-999	-999	-999	-999	-999	-999	-999	-999	-999	-999	-999	-999	-999	-999	-999	-999	-999	0	2	2	1085	-999	0	-999	0	-999	
20200218	1	10.5.2019	2	19	3	0	0	0	0	1	3	1	0	2	1	1	2	2	-999	-999	-999	-999	-999	-999	-999	-999	-999	-999	-999	-999	-999	-999	-999	-999	-999	-999	-999	-999	-999	-999	-999	-999	-999	-999	-999	-999	-999	-999	-999	-999	-999	-999	-999	-999	1	3	2	786	-999	0	-999	1	-999	
20200218	1	10.5.2019	2	20	0	2	3	1	2	0	1	3	3	2	0	3	1	0	-999	-999	-999	-999	-999	-999	-999	-999	-999	-999	-999	-999	-999	-999	-999	-999	-999	-999	-999	-999	-999	-999	-999	-999	-999	-999	-999	-999	-999	-999	-999	-999	-999	-999	-999	-999	2	0	3	2470	-999	0	-999	0	-999	
20200218	1	10.5.2019	2	21	1	3	0	1	1	0	3	2	0	2	0	0	0	3	-999	-999	-999	-999	-999	-999	-999	-999	-999	-999	-999	-999	-999	-999	-999	-999	-999	-999	-999	-999	-999	-999	-999	-999	-999	-999	-999	-999	-999	-999	-999	-999	-999	-999	-999	-999	1	0	6	1194	2016	1	1	1	0	
20200218	1	10.5.2019	2	22	3	2	1	0	1	2	0	1	2	2	3	3	3	1	-999	-999	-999	-999	-999	-999	-999	-999	-999	-999	-999	-999	-999	-999	-999	-999	-999	-999	-999	-999	-999	-999	-999	-999	-999	-999	-999	-999	-999	-999	-999	-999	-999	-999	-999	-999	3	3	6	1052	1112	1	1	1	1	
20200218	1	10.5.2019	2	23	2	3	0	1	2	1	2	2	3	2	3	1	3	0	-999	-999	-999	-999	-999	-999	-999	-999	-999	-999	-999	-999	-999	-999	-999	-999	-999	-999	-999	-999	-999	-999	-999	-999	-999	-999	-999	-999	-999	-999	-999	-999	-999	-999	-999	-999	0	1	1	1946	753	1	1	1	0	
20200218	1	10.5.2019	3	0	0	0	2	0	3	1	2	1	3	2	0	2	0	3	-999	-999	-999	-999	-999	-999	-999	-999	-999	-999	-999	-999	-999	-999	-999	-999	-999	-999	-999	-999	-999	-999	-999	-999	-999	-999	-999	-999	-999	-999	-999	-999	-999	-999	-999	-999	2	2	5	1255	-999	0	-999	1	-999	
20200218	1	10.5.2019	3	1	1	2	2	1	0	1	1	0	2	0	3	1	2	2	-999	-999	-999	-999	-999	-999	-999	-999	-999	-999	-999	-999	-999	-999	-999	-999	-999	-999	-999	-999	-999	-999	-999	-999	-999	-999	-999	-999	-999	-999	-999	-999	-999	-999	-999	-999	1	2	1	1611	1080	1	1	1	1	
20200218	1	10.5.2019	3	2	2	2	3	2	0	2	0	3	1	2	1	3	2	0	-999	-999	-999	-999	-999	-999	-999	-999	-999	-999	-999	-999	-999	-999	-999	-999	-999	-999	-999	-999	-999	-999	-999	-999	-999	-999	-999	-999	-999	-999	-999	-999	-999	-999	-999	-999	1	0	4	1241	-999	0	-999	1	-999	
20200218	1	10.5.2019	3	3	1	0	1	2	3	0	2	0	1	3	2	2	2	3	-999	-999	-999	-999	-999	-999	-999	-999	-999	-999	-999	-999	-999	-999	-999	-999	-999	-999	-999	-999	-999	-999	-999	-999	-999	-999	-999	-999	-999	-999	-999	-999	-999	-999	-999	-999	1	0	1	2221	888	1	1	1	1	
20200218	1	10.5.2019	3	4	0	2	2	1	2	3	0	3	2	2	3	1	3	0	-999	-999	-999	-999	-999	-999	-999	-999	-999	-999	-999	-999	-999	-999	-999	-999	-999	-999	-999	-999	-999	-999	-999	-999	-999	-999	-999	-999	-999	-999	-999	-999	-999	-999	-999	-999	2	1	7	1426	1832	1	1	1	0	
20200218	1	10.5.2019	3	5	0	3	1	0	2	0	3	3	2	2	2	3	3	1	-999	-999	-999	-999	-999	-999	-999	-999	-999	-999	-999	-999	-999	-999	-999	-999	-999	-999	-999	-999	-999	-999	-999	-999	-999	-999	-999	-999	-999	-999	-999	-999	-999	-999	-999	-999	2	2	5	1112	799	1	1	1	1	
20200218	1	10.5.2019	3	6	1	3	2	1	1	2	3	0	1	0	1	1	0	3	-999	-999	-999	-999	-999	-999	-999	-999	-999	-999	-999	-999	-999	-999	-999	-999	-999	-999	-999	-999	-999	-999	-999	-999	-999	-999	-999	-999	-999	-999	-999	-999	-999	-999	-999	-999	2	3	7	2253	-999	0	-999	1	-999	
20200218	1	10.5.2019	3	7	1	1	3	0	3	2	0	1	1	3	2	0	1	0	-999	-999	-999	-999	-999	-999	-999	-999	-999	-999	-999	-999	-999	-999	-999	-999	-999	-999	-999	-999	-999	-999	-999	-999	-999	-999	-999	-999	-999	-999	-999	-999	-999	-999	-999	-999	3	2	3	1081	-999	0	-999	0	-999	
20200218	1	10.5.2019	3	8	2	3	0	3	3	0	1	3	0	0	2	2	2	1	-999	-999	-999	-999	-999	-999	-999	-999	-999	-999	-999	-999	-999	-999	-999	-999	-999	-999	-999	-999	-999	-999	-999	-999	-999	-999	-999	-999	-999	-999	-999	-999	-999	-999	-999	-999	2	1	2	1150	919	1	0	1	1	
20200218	1	10.5.2019	3	9	3	1	1	0	0	0	3	2	3	3	1	1	1	2	-999	-999	-999	-999	-999	-999	-999	-999	-999	-999	-999	-999	-999	-999	-999	-999	-999	-999	-999	-999	-999	-999	-999	-999	-999	-999	-999	-999	-999	-999	-999	-999	-999	-999	-999	-999	3	3	4	1235	2048	1	0	1	1	
20200218	1	10.5.2019	3	10	0	1	2	3	1	1	3	2	1	3	2	1	2	2	-999	-999	-999	-999	-999	-999	-999	-999	-999	-999	-999	-999	-999	-999	-999	-999	-999	-999	-999	-999	-999	-999	-999	-999	-999	-999	-999	-999	-999	-999	-999	-999	-999	-999	-999	-999	3	2	1	937	1441	1	0	1	1	
20200218	1	10.5.2019	3	11	3	1	1	0	0	0	0	1	3	2	3	0	0	2	-999	-999	-999	-999	-999	-999	-999	-999	-999	-999	-999	-999	-999	-999	-999	-999	-999	-999	-999	-999	-999	-999	-999	-999	-999	-999	-999	-999	-999	-999	-999	-999	-999	-999	-999	-999	1	0	2	1390	2080	1	0	1	0	
20200218	1	10.5.2019	3	12	1	1	2	1	1	0	2	3	3	3	0	3	0	1	-999	-999	-999	-999	-999	-999	-999	-999	-999	-999	-999	-999	-999	-999	-999	-999	-999	-999	-999	-999	-999	-999	-999	-999	-999	-999	-999	-999	-999	-999	-999	-999	-999	-999	-999	-999	1	1	5	1429	1113	1	0	1	1	
20200218	1	10.5.2019	3	13	1	0	2	1	0	1	2	3	2	0	3	0	3	2	-999	-999	-999	-999	-999	-999	-999	-999	-999	-999	-999	-999	-999	-999	-999	-999	-999	-999	-999	-999	-999	-999	-999	-999	-999	-999	-999	-999	-999	-999	-999	-999	-999	-999	-999	-999	2	1	2	1155	1176	1	1	1	1	
20200218	1	10.5.2019	3	14	1	0	2	2	3	2	0	1	0	0	3	0	1	3	-999	-999	-999	-999	-999	-999	-999	-999	-999	-999	-999	-999	-999	-999	-999	-999	-999	-999	-999	-999	-999	-999	-999	-999	-999	-999	-999	-999	-999	-999	-999	-999	-999	-999	-999	-999	2	3	6	1056	-999	0	-999	1	-999	
20200218	1	10.5.2019	3	15	0	1	2	0	0	0	2	2	0	2	3	2	2	3	-999	-999	-999	-999	-999	-999	-999	-999	-999	-999	-999	-999	-999	-999	-999	-999	-999	-999	-999	-999	-999	-999	-999	-999	-999	-999	-999	-999	-999	-999	-999	-999	-999	-999	-999	-999	2	0	3	1573	871	1	1	1	0	
20200218	1	10.5.2019	3	16	2	2	1	1	2	1	2	3	0	2	3	2	3	1	-999	-999	-999	-999	-999	-999	-999	-999	-999	-999	-999	-999	-999	-999	-999	-999	-999	-999	-999	-999	-999	-999	-999	-999	-999	-999	-999	-999	-999	-999	-999	-999	-999	-999	-999	-999	2	3	4	1362	856	1	1	1	1	
20200218	1	10.5.2019	3	17	1	3	1	1	0	3	1	2	3	1	2	1	2	3	-999	-999	-999	-999	-999	-999	-999	-999	-999	-999	-999	-999	-999	-999	-999	-999	-999	-999	-999	-999	-999	-999	-999	-999	-999	-999	-999	-999	-999	-999	-999	-999	-999	-999	-999	-999	0	2	1	1960	649	1	0	0	-999	
20200218	1	10.5.2019	3	18	2	0	1	1	1	0	0	0	1	2	0	3	3	2	-999	-999	-999	-999	-999	-999	-999	-999	-999	-999	-999	-999	-999	-999	-999	-999	-999	-999	-999	-999	-999	-999	-999	-999	-999	-999	-999	-999	-999	-999	-999	-999	-999	-999	-999	-999	0	3	6	1175	1271	1	1	1	1	
20200218	1	10.5.2019	3	19	2	2	2	3	3	3	0	0	0	3	1	2	1	0	-999	-999	-999	-999	-999	-999	-999	-999	-999	-999	-999	-999	-999	-999	-999	-999	-999	-999	-999	-999	-999	-999	-999	-999	-999	-999	-999	-999	-999	-999	-999	-999	-999	-999	-999	-999	1	1	4	2364	-999	0	-999	1	-999	
20200218	1	10.5.2019	3	20	0	2	1	2	3	2	2	0	3	0	1	3	2	1	-999	-999	-999	-999	-999	-999	-999	-999	-999	-999	-999	-999	-999	-999	-999	-999	-999	-999	-999	-999	-999	-999	-999	-999	-999	-999	-999	-999	-999	-999	-999	-999	-999	-999	-999	-999	2	1	7	1080	601	1	1	1	1	
20200218	1	10.5.2019	3	21	0	2	3	0	1	1	3	3	3	2	1	2	3	1	-999	-999	-999	-999	-999	-999	-999	-999	-999	-999	-999	-999	-999	-999	-999	-999	-999	-999	-999	-999	-999	-999	-999	-999	-999	-999	-999	-999	-999	-999	-999	-999	-999	-999	-999	-999	3	0	3	1686	1968	1	1	1	0	
20200218	1	10.5.2019	3	22	3	3	0	2	1	3	3	1	1	2	2	2	1	0	-999	-999	-999	-999	-999	-999	-999	-999	-999	-999	-999	-999	-999	-999	-999	-999	-999	-999	-999	-999	-999	-999	-999	-999	-999	-999	-999	-999	-999	-999	-999	-999	-999	-999	-999	-999	2	3	2	2683	-999	0	-999	1	-999	
20200218	1	10.5.2019	3	23	2	1	1	1	2	2	1	2	3	2	3	1	0	3	-999	-999	-999	-999	-999	-999	-999	-999	-999	-999	-999	-999	-999	-999	-999	-999	-999	-999	-999	-999	-999	-999	-999	-999	-999	-999	-999	-999	-999	-999	-999	-999	-999	-999	-999	-999	2	1	7	1352	1199	1	0	1	1	
20200218	1	10.5.2019	4	0	1	2	0	3	1	1	0	2	-999	-999	-999	-999	-999	-999	-999	-999	-999	-999	-999	-999	-999	-999	-999	-999	-999	-999	-999	-999	-999	-999	-999	-999	-999	-999	-999	-999	-999	-999	-999	-999	-999	-999	-999	-999	-999	-999	-999	-999	-999	-999	0	3	2	1264	935	1	1	1	1	
20200218	1	10.5.2019	4	1	1	2	0	1	3	3	0	2	-999	-999	-999	-999	-999	-999	-999	-999	-999	-999	-999	-999	-999	-999	-999	-999	-999	-999	-999	-999	-999	-999	-999	-999	-999	-999	-999	-999	-999	-999	-999	-999	-999	-999	-999	-999	-999	-999	-999	-999	-999	-999	2	2	1	1031	-999	0	-999	1	-999	
20200218	1	10.5.2019	4	2	2	0	2	3	3	2	1	0	-999	-999	-999	-999	-999	-999	-999	-999	-999	-999	-999	-999	-999	-999	-999	-999	-999	-999	-999	-999	-999	-999	-999	-999	-999	-999	-999	-999	-999	-999	-999	-999	-999	-999	-999	-999	-999	-999	-999	-999	-999	-999	2	0	1	1125	817	1	1	1	1	
20200218	1	10.5.2019	4	3	2	0	1	3	1	2	2	1	-999	-999	-999	-999	-999	-999	-999	-999	-999	-999	-999	-999	-999	-999	-999	-999	-999	-999	-999	-999	-999	-999	-999	-999	-999	-999	-999	-999	-999	-999	-999	-999	-999	-999	-999	-999	-999	-999	-999	-999	-999	-999	0	3	1	989	-999	0	-999	1	-999	
20200218	1	10.5.2019	4	4	3	3	1	1	1	0	3	1	-999	-999	-999	-999	-999	-999	-999	-999	-999	-999	-999	-999	-999	-999	-999	-999	-999	-999	-999	-999	-999	-999	-999	-999	-999	-999	-999	-999	-999	-999	-999	-999	-999	-999	-999	-999	-999	-999	-999	-999	-999	-999	3	3	3	1443	864	1	0	1	1	
20200218	1	10.5.2019	4	5	2	0	2	1	0	1	0	0	-999	-999	-999	-999	-999	-999	-999	-999	-999	-999	-999	-999	-999	-999	-999	-999	-999	-999	-999	-999	-999	-999	-999	-999	-999	-999	-999	-999	-999	-999	-999	-999	-999	-999	-999	-999	-999	-999	-999	-999	-999	-999	2	0	1	1043	639	1	1	1	1	
20200218	1	10.5.2019	4	6	0	2	3	0	2	1	0	3	-999	-999	-999	-999	-999	-999	-999	-999	-999	-999	-999	-999	-999	-999	-999	-999	-999	-999	-999	-999	-999	-999	-999	-999	-999	-999	-999	-999	-999	-999	-999	-999	-999	-999	-999	-999	-999	-999	-999	-999	-999	-999	0	3	2	1434	840	1	0	1	1	
20200218	1	10.5.2019	4	7	2	1	0	1	0	2	3	1	-999	-999	-999	-999	-999	-999	-999	-999	-999	-999	-999	-999	-999	-999	-999	-999	-999	-999	-999	-999	-999	-999	-999	-999	-999	-999	-999	-999	-999	-999	-999	-999	-999	-999	-999	-999	-999	-999	-999	-999	-999	-999	2	1	1	938	569	1	1	1	1	
20200218	1	10.5.2019	4	8	3	3	0	2	2	2	3	1	-999	-999	-999	-999	-999	-999	-999	-999	-999	-999	-999	-999	-999	-999	-999	-999	-999	-999	-999	-999	-999	-999	-999	-999	-999	-999	-999	-999	-999	-999	-999	-999	-999	-999	-999	-999	-999	-999	-999	-999	-999	-999	0	2	1	1235	1007	1	0	1	1	
20200218	1	10.5.2019	4	9	3	0	0	2	3	1	1	0	-999	-999	-999	-999	-999	-999	-999	-999	-999	-999	-999	-999	-999	-999	-999	-999	-999	-999	-999	-999	-999	-999	-999	-999	-999	-999	-999	-999	-999	-999	-999	-999	-999	-999	-999	-999	-999	-999	-999	-999	-999	-999	2	1	3	1018	-999	0	-999	1	-999	
20200218	1	10.5.2019	4	10	2	1	1	3	3	2	1	1	-999	-999	-999	-999	-999	-999	-999	-999	-999	-999	-999	-999	-999	-999	-999	-999	-999	-999	-999	-999	-999	-999	-999	-999	-999	-999	-999	-999	-999	-999	-999	-999	-999	-999	-999	-999	-999	-999	-999	-999	-999	-999	0	0	3	1128	-999	0	-999	1	-999	
20200218	1	10.5.2019	4	11	0	3	3	3	3	1	1	1	-999	-999	-999	-999	-999	-999	-999	-999	-999	-999	-999	-999	-999	-999	-999	-999	-999	-999	-999	-999	-999	-999	-999	-999	-999	-999	-999	-999	-999	-999	-999	-999	-999	-999	-999	-999	-999	-999	-999	-999	-999	-999	3	1	4	1039	807	1	0	1	1	
20200218	1	10.5.2019	4	12	0	3	1	3	3	0	3	3	-999	-999	-999	-999	-999	-999	-999	-999	-999	-999	-999	-999	-999	-999	-999	-999	-999	-999	-999	-999	-999	-999	-999	-999	-999	-999	-999	-999	-999	-999	-999	-999	-999	-999	-999	-999	-999	-999	-999	-999	-999	-999	1	2	3	1382	880	1	0	0	-999	
20200218	1	10.5.2019	4	13	2	2	1	1	0	3	2	3	-999	-999	-999	-999	-999	-999	-999	-999	-999	-999	-999	-999	-999	-999	-999	-999	-999	-999	-999	-999	-999	-999	-999	-999	-999	-999	-999	-999	-999	-999	-999	-999	-999	-999	-999	-999	-999	-999	-999	-999	-999	-999	2	2	3	1238	1705	1	0	1	1	
20200218	1	10.5.2019	4	14	0	0	3	1	2	3	1	1	-999	-999	-999	-999	-999	-999	-999	-999	-999	-999	-999	-999	-999	-999	-999	-999	-999	-999	-999	-999	-999	-999	-999	-999	-999	-999	-999	-999	-999	-999	-999	-999	-999	-999	-999	-999	-999	-999	-999	-999	-999	-999	0	0	1	1062	576	1	1	1	1	
20200218	1	10.5.2019	4	15	1	0	2	1	0	2	1	2	-999	-999	-999	-999	-999	-999	-999	-999	-999	-999	-999	-999	-999	-999	-999	-999	-999	-999	-999	-999	-999	-999	-999	-999	-999	-999	-999	-999	-999	-999	-999	-999	-999	-999	-999	-999	-999	-999	-999	-999	-999	-999	1	1	1	1061	-999	0	-999	1	-999	
20200218	1	10.5.2019	4	16	0	1	0	3	2	0	2	3	-999	-999	-999	-999	-999	-999	-999	-999	-999	-999	-999	-999	-999	-999	-999	-999	-999	-999	-999	-999	-999	-999	-999	-999	-999	-999	-999	-999	-999	-999	-999	-999	-999	-999	-999	-999	-999	-999	-999	-999	-999	-999	0	3	1	1388	1303	1	0	1	1	
20200218	1	10.5.2019	4	17	1	2	2	2	0	2	3	0	-999	-999	-999	-999	-999	-999	-999	-999	-999	-999	-999	-999	-999	-999	-999	-999	-999	-999	-999	-999	-999	-999	-999	-999	-999	-999	-999	-999	-999	-999	-999	-999	-999	-999	-999	-999	-999	-999	-999	-999	-999	-999	0	1	2	1107	-999	0	-999	1	-999	
20200218	1	10.5.2019	4	18	2	1	2	0	3	1	2	3	-999	-999	-999	-999	-999	-999	-999	-999	-999	-999	-999	-999	-999	-999	-999	-999	-999	-999	-999	-999	-999	-999	-999	-999	-999	-999	-999	-999	-999	-999	-999	-999	-999	-999	-999	-999	-999	-999	-999	-999	-999	-999	1	3	2	785	-999	0	-999	1	-999	
20200218	1	10.5.2019	4	19	3	1	2	1	3	0	0	1	-999	-999	-999	-999	-999	-999	-999	-999	-999	-999	-999	-999	-999	-999	-999	-999	-999	-999	-999	-999	-999	-999	-999	-999	-999	-999	-999	-999	-999	-999	-999	-999	-999	-999	-999	-999	-999	-999	-999	-999	-999	-999	3	1	2	1128	951	1	1	1	0	
20200218	1	10.5.2019	4	20	2	1	0	0	3	2	1	0	-999	-999	-999	-999	-999	-999	-999	-999	-999	-999	-999	-999	-999	-999	-999	-999	-999	-999	-999	-999	-999	-999	-999	-999	-999	-999	-999	-999	-999	-999	-999	-999	-999	-999	-999	-999	-999	-999	-999	-999	-999	-999	0	3	2	815	-999	0	-999	1	-999	
20200218	1	10.5.2019	4	21	2	0	1	3	1	0	0	3	-999	-999	-999	-999	-999	-999	-999	-999	-999	-999	-999	-999	-999	-999	-999	-999	-999	-999	-999	-999	-999	-999	-999	-999	-999	-999	-999	-999	-999	-999	-999	-999	-999	-999	-999	-999	-999	-999	-999	-999	-999	-999	2	0	1	1132	649	1	1	1	1	
20200218	1	10.5.2019	4	22	2	3	1	2	3	1	3	0	-999	-999	-999	-999	-999	-999	-999	-999	-999	-999	-999	-999	-999	-999	-999	-999	-999	-999	-999	-999	-999	-999	-999	-999	-999	-999	-999	-999	-999	-999	-999	-999	-999	-999	-999	-999	-999	-999	-999	-999	-999	-999	2	1	3	892	-999	0	-999	1	-999	
20200218	1	10.5.2019	4	23	2	1	1	2	2	0	0	2	-999	-999	-999	-999	-999	-999	-999	-999	-999	-999	-999	-999	-999	-999	-999	-999	-999	-999	-999	-999	-999	-999	-999	-999	-999	-999	-999	-999	-999	-999	-999	-999	-999	-999	-999	-999	-999	-999	-999	-999	-999	-999	2	1	1	882	880	1	1	1	1	
