VPID	SESSION_ID	DATE	BLOCK	TRIAL	PX0	PY0	PX1	PY1	PX2	PY2	PX3	PY3	PX4	PY4	PX5	PY5	PX6	PY6	PX7	PY7	PX8	PY8	PX9	PY9	PX10	PY10	PX11	PY11	PX12	PY12	PX13	PY13	PX14	PY14	PX15	PY15	PX16	PY16	PX17	PY17	PX18	PY18	PX19	PY19	PX20	PY20	PX21	PY21	PX22	PY22	PX23	PY23	PX24	PY24	AX	AY	AD	RT1	RT2	Resp1	Resp2	Corr1	Corr2
20200339	1	13.12.2019	0	0	1	2	3	1	2	3	0	1	-999	-999	-999	-999	-999	-999	-999	-999	-999	-999	-999	-999	-999	-999	-999	-999	-999	-999	-999	-999	-999	-999	-999	-999	-999	-999	-999	-999	-999	-999	-999	-999	-999	-999	-999	-999	-999	-999	-999	-999	-999	-999	3	1	2	4121	-999	1	-999	1	0	
20200339	1	13.12.2019	0	1	3	2	1	2	2	0	2	1	-999	-999	-999	-999	-999	-999	-999	-999	-999	-999	-999	-999	-999	-999	-999	-999	-999	-999	-999	-999	-999	-999	-999	-999	-999	-999	-999	-999	-999	-999	-999	-999	-999	-999	-999	-999	-999	-999	-999	-999	-999	-999	1	2	2	2391	-999	1	-999	1	0	
20200339	1	13.12.2019	0	2	2	1	0	0	1	2	3	0	2	0	1	3	3	3	-999	-999	-999	-999	-999	-999	-999	-999	-999	-999	-999	-999	-999	-999	-999	-999	-999	-999	-999	-999	-999	-999	-999	-999	-999	-999	-999	-999	-999	-999	-999	-999	-999	-999	-999	-999	3	3	3	3486	-999	0	-999	0	-999	
20200339	1	13.12.2019	0	3	0	3	3	2	3	3	1	3	0	2	2	1	0	0	-999	-999	-999	-999	-999	-999	-999	-999	-999	-999	-999	-999	-999	-999	-999	-999	-999	-999	-999	-999	-999	-999	-999	-999	-999	-999	-999	-999	-999	-999	-999	-999	-999	-999	-999	-999	0	2	7	2046	-999	1	-999	1	0	
20200339	1	13.12.2019	1	0	1	1	2	2	2	1	2	3	-999	-999	-999	-999	-999	-999	-999	-999	-999	-999	-999	-999	-999	-999	-999	-999	-999	-999	-999	-999	-999	-999	-999	-999	-999	-999	-999	-999	-999	-999	-999	-999	-999	-999	-999	-999	-999	-999	-999	-999	-999	-999	2	2	2	1792	-999	1	-999	1	0	
20200339	1	13.12.2019	1	1	2	3	1	1	3	2	0	3	-999	-999	-999	-999	-999	-999	-999	-999	-999	-999	-999	-999	-999	-999	-999	-999	-999	-999	-999	-999	-999	-999	-999	-999	-999	-999	-999	-999	-999	-999	-999	-999	-999	-999	-999	-999	-999	-999	-999	-999	-999	-999	1	3	4	2677	-999	0	-999	1	-999	
20200339	1	13.12.2019	1	2	3	2	1	0	3	0	2	0	-999	-999	-999	-999	-999	-999	-999	-999	-999	-999	-999	-999	-999	-999	-999	-999	-999	-999	-999	-999	-999	-999	-999	-999	-999	-999	-999	-999	-999	-999	-999	-999	-999	-999	-999	-999	-999	-999	-999	-999	-999	-999	3	2	1	2464	-999	1	-999	1	0	
20200339	1	13.12.2019	1	3	0	0	2	0	3	3	0	3	-999	-999	-999	-999	-999	-999	-999	-999	-999	-999	-999	-999	-999	-999	-999	-999	-999	-999	-999	-999	-999	-999	-999	-999	-999	-999	-999	-999	-999	-999	-999	-999	-999	-999	-999	-999	-999	-999	-999	-999	-999	-999	3	3	4	2269	-999	1	-999	1	0	
20200339	1	13.12.2019	1	4	2	2	1	0	2	0	0	3	-999	-999	-999	-999	-999	-999	-999	-999	-999	-999	-999	-999	-999	-999	-999	-999	-999	-999	-999	-999	-999	-999	-999	-999	-999	-999	-999	-999	-999	-999	-999	-999	-999	-999	-999	-999	-999	-999	-999	-999	-999	-999	0	1	2	2461	-999	0	-999	1	-999	
20200339	1	13.12.2019	1	5	3	2	0	3	1	2	3	1	-999	-999	-999	-999	-999	-999	-999	-999	-999	-999	-999	-999	-999	-999	-999	-999	-999	-999	-999	-999	-999	-999	-999	-999	-999	-999	-999	-999	-999	-999	-999	-999	-999	-999	-999	-999	-999	-999	-999	-999	-999	-999	3	2	1	2475	-999	1	-999	1	0	
20200339	1	13.12.2019	1	6	2	0	3	2	3	3	0	3	-999	-999	-999	-999	-999	-999	-999	-999	-999	-999	-999	-999	-999	-999	-999	-999	-999	-999	-999	-999	-999	-999	-999	-999	-999	-999	-999	-999	-999	-999	-999	-999	-999	-999	-999	-999	-999	-999	-999	-999	-999	-999	3	3	4	1961	-999	1	-999	1	0	
20200339	1	13.12.2019	1	7	0	1	1	0	0	0	3	0	-999	-999	-999	-999	-999	-999	-999	-999	-999	-999	-999	-999	-999	-999	-999	-999	-999	-999	-999	-999	-999	-999	-999	-999	-999	-999	-999	-999	-999	-999	-999	-999	-999	-999	-999	-999	-999	-999	-999	-999	-999	-999	0	1	1	1741	-999	1	-999	1	0	
20200339	1	13.12.2019	1	8	1	2	0	1	2	3	0	2	-999	-999	-999	-999	-999	-999	-999	-999	-999	-999	-999	-999	-999	-999	-999	-999	-999	-999	-999	-999	-999	-999	-999	-999	-999	-999	-999	-999	-999	-999	-999	-999	-999	-999	-999	-999	-999	-999	-999	-999	-999	-999	1	2	3	2677	-999	0	-999	0	-999	
20200339	1	13.12.2019	1	9	0	0	3	1	3	0	0	3	-999	-999	-999	-999	-999	-999	-999	-999	-999	-999	-999	-999	-999	-999	-999	-999	-999	-999	-999	-999	-999	-999	-999	-999	-999	-999	-999	-999	-999	-999	-999	-999	-999	-999	-999	-999	-999	-999	-999	-999	-999	-999	0	3	4	1608	-999	1	-999	1	0	
20200339	1	13.12.2019	1	10	0	2	2	3	2	1	2	2	-999	-999	-999	-999	-999	-999	-999	-999	-999	-999	-999	-999	-999	-999	-999	-999	-999	-999	-999	-999	-999	-999	-999	-999	-999	-999	-999	-999	-999	-999	-999	-999	-999	-999	-999	-999	-999	-999	-999	-999	-999	-999	1	2	4	2319	-999	0	-999	1	-999	
20200339	1	13.12.2019	1	11	1	1	3	3	3	1	0	2	-999	-999	-999	-999	-999	-999	-999	-999	-999	-999	-999	-999	-999	-999	-999	-999	-999	-999	-999	-999	-999	-999	-999	-999	-999	-999	-999	-999	-999	-999	-999	-999	-999	-999	-999	-999	-999	-999	-999	-999	-999	-999	3	3	2	2276	-999	1	-999	1	0	
20200339	1	13.12.2019	1	12	0	2	3	1	1	1	2	0	-999	-999	-999	-999	-999	-999	-999	-999	-999	-999	-999	-999	-999	-999	-999	-999	-999	-999	-999	-999	-999	-999	-999	-999	-999	-999	-999	-999	-999	-999	-999	-999	-999	-999	-999	-999	-999	-999	-999	-999	-999	-999	2	0	1	3186	-999	1	-999	1	0	
20200339	1	13.12.2019	1	13	0	0	2	1	0	3	1	1	-999	-999	-999	-999	-999	-999	-999	-999	-999	-999	-999	-999	-999	-999	-999	-999	-999	-999	-999	-999	-999	-999	-999	-999	-999	-999	-999	-999	-999	-999	-999	-999	-999	-999	-999	-999	-999	-999	-999	-999	-999	-999	2	1	2	2841	-999	1	-999	1	0	
20200339	1	13.12.2019	1	14	2	2	1	1	1	3	0	3	-999	-999	-999	-999	-999	-999	-999	-999	-999	-999	-999	-999	-999	-999	-999	-999	-999	-999	-999	-999	-999	-999	-999	-999	-999	-999	-999	-999	-999	-999	-999	-999	-999	-999	-999	-999	-999	-999	-999	-999	-999	-999	1	3	2	3482	-999	1	-999	1	0	
20200339	1	13.12.2019	1	15	1	1	2	3	3	0	1	3	-999	-999	-999	-999	-999	-999	-999	-999	-999	-999	-999	-999	-999	-999	-999	-999	-999	-999	-999	-999	-999	-999	-999	-999	-999	-999	-999	-999	-999	-999	-999	-999	-999	-999	-999	-999	-999	-999	-999	-999	-999	-999	3	0	3	2383	-999	0	-999	0	-999	
20200339	1	13.12.2019	1	16	0	1	3	0	1	1	2	0	-999	-999	-999	-999	-999	-999	-999	-999	-999	-999	-999	-999	-999	-999	-999	-999	-999	-999	-999	-999	-999	-999	-999	-999	-999	-999	-999	-999	-999	-999	-999	-999	-999	-999	-999	-999	-999	-999	-999	-999	-999	-999	0	1	3	2007	-999	1	-999	1	0	
20200339	1	13.12.2019	1	17	0	1	3	1	1	3	0	0	-999	-999	-999	-999	-999	-999	-999	-999	-999	-999	-999	-999	-999	-999	-999	-999	-999	-999	-999	-999	-999	-999	-999	-999	-999	-999	-999	-999	-999	-999	-999	-999	-999	-999	-999	-999	-999	-999	-999	-999	-999	-999	1	3	3	1646	-999	1	-999	1	0	
20200339	1	13.12.2019	1	18	3	1	2	3	0	3	0	0	-999	-999	-999	-999	-999	-999	-999	-999	-999	-999	-999	-999	-999	-999	-999	-999	-999	-999	-999	-999	-999	-999	-999	-999	-999	-999	-999	-999	-999	-999	-999	-999	-999	-999	-999	-999	-999	-999	-999	-999	-999	-999	2	3	1	2973	-999	1	-999	1	0	
20200339	1	13.12.2019	1	19	2	1	0	1	0	2	1	3	-999	-999	-999	-999	-999	-999	-999	-999	-999	-999	-999	-999	-999	-999	-999	-999	-999	-999	-999	-999	-999	-999	-999	-999	-999	-999	-999	-999	-999	-999	-999	-999	-999	-999	-999	-999	-999	-999	-999	-999	-999	-999	1	2	4	2473	-999	0	-999	1	-999	
20200339	1	13.12.2019	1	20	3	3	0	0	3	2	1	1	-999	-999	-999	-999	-999	-999	-999	-999	-999	-999	-999	-999	-999	-999	-999	-999	-999	-999	-999	-999	-999	-999	-999	-999	-999	-999	-999	-999	-999	-999	-999	-999	-999	-999	-999	-999	-999	-999	-999	-999	-999	-999	2	1	4	2055	-999	0	-999	1	-999	
20200339	1	13.12.2019	1	21	3	2	2	2	2	0	2	3	-999	-999	-999	-999	-999	-999	-999	-999	-999	-999	-999	-999	-999	-999	-999	-999	-999	-999	-999	-999	-999	-999	-999	-999	-999	-999	-999	-999	-999	-999	-999	-999	-999	-999	-999	-999	-999	-999	-999	-999	-999	-999	2	0	2	2243	-999	1	-999	1	0	
20200339	1	13.12.2019	1	22	2	3	1	1	2	1	1	2	-999	-999	-999	-999	-999	-999	-999	-999	-999	-999	-999	-999	-999	-999	-999	-999	-999	-999	-999	-999	-999	-999	-999	-999	-999	-999	-999	-999	-999	-999	-999	-999	-999	-999	-999	-999	-999	-999	-999	-999	-999	-999	1	1	1	1947	-999	1	-999	1	0	
20200339	1	13.12.2019	1	23	0	0	0	1	3	2	3	0	-999	-999	-999	-999	-999	-999	-999	-999	-999	-999	-999	-999	-999	-999	-999	-999	-999	-999	-999	-999	-999	-999	-999	-999	-999	-999	-999	-999	-999	-999	-999	-999	-999	-999	-999	-999	-999	-999	-999	-999	-999	-999	0	3	1	1895	-999	0	-999	1	-999	
20200339	1	13.12.2019	2	0	3	0	1	0	0	2	3	1	1	1	2	1	0	0	-999	-999	-999	-999	-999	-999	-999	-999	-999	-999	-999	-999	-999	-999	-999	-999	-999	-999	-999	-999	-999	-999	-999	-999	-999	-999	-999	-999	-999	-999	-999	-999	-999	-999	-999	-999	1	2	5	2954	-999	0	-999	1	-999	
20200339	1	13.12.2019	2	1	2	3	3	3	0	3	2	1	0	0	3	0	1	1	-999	-999	-999	-999	-999	-999	-999	-999	-999	-999	-999	-999	-999	-999	-999	-999	-999	-999	-999	-999	-999	-999	-999	-999	-999	-999	-999	-999	-999	-999	-999	-999	-999	-999	-999	-999	2	3	4	2475	-999	1	-999	1	0	
20200339	1	13.12.2019	2	2	3	3	3	0	0	2	1	1	0	1	2	1	2	2	-999	-999	-999	-999	-999	-999	-999	-999	-999	-999	-999	-999	-999	-999	-999	-999	-999	-999	-999	-999	-999	-999	-999	-999	-999	-999	-999	-999	-999	-999	-999	-999	-999	-999	-999	-999	3	0	5	2627	-999	0	-999	0	-999	
20200339	1	13.12.2019	2	3	0	2	1	0	3	2	1	1	0	0	2	2	0	1	-999	-999	-999	-999	-999	-999	-999	-999	-999	-999	-999	-999	-999	-999	-999	-999	-999	-999	-999	-999	-999	-999	-999	-999	-999	-999	-999	-999	-999	-999	-999	-999	-999	-999	-999	-999	1	2	3	4564	-999	0	-999	1	-999	
20200339	1	13.12.2019	2	4	2	2	1	3	3	1	2	3	1	0	0	3	3	3	-999	-999	-999	-999	-999	-999	-999	-999	-999	-999	-999	-999	-999	-999	-999	-999	-999	-999	-999	-999	-999	-999	-999	-999	-999	-999	-999	-999	-999	-999	-999	-999	-999	-999	-999	-999	1	0	6	3228	-999	0	-999	0	-999	
20200339	1	13.12.2019	2	5	0	3	0	2	0	1	1	0	2	0	1	1	1	3	-999	-999	-999	-999	-999	-999	-999	-999	-999	-999	-999	-999	-999	-999	-999	-999	-999	-999	-999	-999	-999	-999	-999	-999	-999	-999	-999	-999	-999	-999	-999	-999	-999	-999	-999	-999	1	2	4	3360	-999	1	-999	0	-999	
20200339	1	13.12.2019	2	6	2	0	0	0	0	1	0	2	1	1	3	1	3	3	-999	-999	-999	-999	-999	-999	-999	-999	-999	-999	-999	-999	-999	-999	-999	-999	-999	-999	-999	-999	-999	-999	-999	-999	-999	-999	-999	-999	-999	-999	-999	-999	-999	-999	-999	-999	2	3	6	3464	-999	1	-999	0	-999	
20200339	1	13.12.2019	2	7	3	2	2	1	3	0	0	3	0	0	2	3	1	3	-999	-999	-999	-999	-999	-999	-999	-999	-999	-999	-999	-999	-999	-999	-999	-999	-999	-999	-999	-999	-999	-999	-999	-999	-999	-999	-999	-999	-999	-999	-999	-999	-999	-999	-999	-999	3	0	3	2349	-999	1	-999	1	0	
20200339	1	13.12.2019	2	8	3	3	0	3	2	1	0	2	2	0	2	3	3	2	-999	-999	-999	-999	-999	-999	-999	-999	-999	-999	-999	-999	-999	-999	-999	-999	-999	-999	-999	-999	-999	-999	-999	-999	-999	-999	-999	-999	-999	-999	-999	-999	-999	-999	-999	-999	3	3	4	2798	-999	0	-999	0	-999	
20200339	1	13.12.2019	2	9	3	3	3	0	1	0	3	2	0	0	2	3	2	2	-999	-999	-999	-999	-999	-999	-999	-999	-999	-999	-999	-999	-999	-999	-999	-999	-999	-999	-999	-999	-999	-999	-999	-999	-999	-999	-999	-999	-999	-999	-999	-999	-999	-999	-999	-999	3	3	1	-999	-999	-999	-999	0	-999	
20200339	1	13.12.2019	2	10	3	2	2	0	1	0	1	1	0	2	1	2	3	3	-999	-999	-999	-999	-999	-999	-999	-999	-999	-999	-999	-999	-999	-999	-999	-999	-999	-999	-999	-999	-999	-999	-999	-999	-999	-999	-999	-999	-999	-999	-999	-999	-999	-999	-999	-999	3	3	3	1352	-999	1	-999	1	0	
20200339	1	13.12.2019	2	11	1	0	1	2	3	0	3	1	2	3	2	0	3	2	-999	-999	-999	-999	-999	-999	-999	-999	-999	-999	-999	-999	-999	-999	-999	-999	-999	-999	-999	-999	-999	-999	-999	-999	-999	-999	-999	-999	-999	-999	-999	-999	-999	-999	-999	-999	2	1	1	1840	-999	1	-999	0	-999	
20200339	1	13.12.2019	2	12	0	3	2	0	3	2	2	2	3	3	3	1	1	2	-999	-999	-999	-999	-999	-999	-999	-999	-999	-999	-999	-999	-999	-999	-999	-999	-999	-999	-999	-999	-999	-999	-999	-999	-999	-999	-999	-999	-999	-999	-999	-999	-999	-999	-999	-999	3	1	6	2086	-999	1	-999	1	0	
20200339	1	13.12.2019	2	13	3	1	0	3	0	1	2	2	1	3	1	1	1	0	-999	-999	-999	-999	-999	-999	-999	-999	-999	-999	-999	-999	-999	-999	-999	-999	-999	-999	-999	-999	-999	-999	-999	-999	-999	-999	-999	-999	-999	-999	-999	-999	-999	-999	-999	-999	0	0	7	2179	-999	0	-999	1	-999	
20200339	1	13.12.2019	2	14	2	0	3	3	2	3	3	2	1	0	3	1	0	2	-999	-999	-999	-999	-999	-999	-999	-999	-999	-999	-999	-999	-999	-999	-999	-999	-999	-999	-999	-999	-999	-999	-999	-999	-999	-999	-999	-999	-999	-999	-999	-999	-999	-999	-999	-999	2	2	3	2295	-999	1	-999	0	-999	
20200339	1	13.12.2019	2	15	1	0	0	2	0	3	2	1	2	2	1	2	1	1	-999	-999	-999	-999	-999	-999	-999	-999	-999	-999	-999	-999	-999	-999	-999	-999	-999	-999	-999	-999	-999	-999	-999	-999	-999	-999	-999	-999	-999	-999	-999	-999	-999	-999	-999	-999	2	1	4	2225	-999	1	-999	1	0	
20200339	1	13.12.2019	2	16	0	3	1	0	3	3	3	0	1	3	2	0	3	2	-999	-999	-999	-999	-999	-999	-999	-999	-999	-999	-999	-999	-999	-999	-999	-999	-999	-999	-999	-999	-999	-999	-999	-999	-999	-999	-999	-999	-999	-999	-999	-999	-999	-999	-999	-999	0	0	3	2385	-999	0	-999	1	-999	
20200339	1	13.12.2019	2	17	1	3	2	3	0	0	2	0	2	2	1	0	0	1	-999	-999	-999	-999	-999	-999	-999	-999	-999	-999	-999	-999	-999	-999	-999	-999	-999	-999	-999	-999	-999	-999	-999	-999	-999	-999	-999	-999	-999	-999	-999	-999	-999	-999	-999	-999	2	2	2	2268	-999	1	-999	1	0	
20200339	1	13.12.2019	2	18	3	0	0	2	2	2	1	3	0	1	3	1	0	0	-999	-999	-999	-999	-999	-999	-999	-999	-999	-999	-999	-999	-999	-999	-999	-999	-999	-999	-999	-999	-999	-999	-999	-999	-999	-999	-999	-999	-999	-999	-999	-999	-999	-999	-999	-999	0	2	2	2061	-999	1	-999	1	0	
20200339	1	13.12.2019	2	19	3	0	0	0	0	1	3	1	0	2	1	1	2	2	-999	-999	-999	-999	-999	-999	-999	-999	-999	-999	-999	-999	-999	-999	-999	-999	-999	-999	-999	-999	-999	-999	-999	-999	-999	-999	-999	-999	-999	-999	-999	-999	-999	-999	-999	-999	1	3	2	2434	-999	0	-999	1	-999	
20200339	1	13.12.2019	2	20	0	2	3	1	2	0	1	3	3	2	0	3	1	0	-999	-999	-999	-999	-999	-999	-999	-999	-999	-999	-999	-999	-999	-999	-999	-999	-999	-999	-999	-999	-999	-999	-999	-999	-999	-999	-999	-999	-999	-999	-999	-999	-999	-999	-999	-999	2	0	3	2155	-999	0	-999	0	-999	
20200339	1	13.12.2019	2	21	1	3	0	1	1	0	3	2	0	2	0	0	0	3	-999	-999	-999	-999	-999	-999	-999	-999	-999	-999	-999	-999	-999	-999	-999	-999	-999	-999	-999	-999	-999	-999	-999	-999	-999	-999	-999	-999	-999	-999	-999	-999	-999	-999	-999	-999	1	0	6	1880	-999	0	-999	0	-999	
20200339	1	13.12.2019	2	22	3	2	1	0	1	2	0	1	2	2	3	3	3	1	-999	-999	-999	-999	-999	-999	-999	-999	-999	-999	-999	-999	-999	-999	-999	-999	-999	-999	-999	-999	-999	-999	-999	-999	-999	-999	-999	-999	-999	-999	-999	-999	-999	-999	-999	-999	3	3	6	2015	-999	1	-999	1	0	
20200339	1	13.12.2019	2	23	2	3	0	1	2	1	2	2	3	2	3	1	3	0	-999	-999	-999	-999	-999	-999	-999	-999	-999	-999	-999	-999	-999	-999	-999	-999	-999	-999	-999	-999	-999	-999	-999	-999	-999	-999	-999	-999	-999	-999	-999	-999	-999	-999	-999	-999	0	1	1	2285	-999	1	-999	1	0	
20200339	1	13.12.2019	3	0	0	0	2	0	3	1	2	1	3	2	0	2	0	3	-999	-999	-999	-999	-999	-999	-999	-999	-999	-999	-999	-999	-999	-999	-999	-999	-999	-999	-999	-999	-999	-999	-999	-999	-999	-999	-999	-999	-999	-999	-999	-999	-999	-999	-999	-999	2	2	5	4060	-999	1	-999	0	-999	
20200339	1	13.12.2019	3	1	1	2	2	1	0	1	1	0	2	0	3	1	2	2	-999	-999	-999	-999	-999	-999	-999	-999	-999	-999	-999	-999	-999	-999	-999	-999	-999	-999	-999	-999	-999	-999	-999	-999	-999	-999	-999	-999	-999	-999	-999	-999	-999	-999	-999	-999	1	2	1	2698	-999	0	-999	0	-999	
20200339	1	13.12.2019	3	2	2	2	3	2	0	2	0	3	1	2	1	3	2	0	-999	-999	-999	-999	-999	-999	-999	-999	-999	-999	-999	-999	-999	-999	-999	-999	-999	-999	-999	-999	-999	-999	-999	-999	-999	-999	-999	-999	-999	-999	-999	-999	-999	-999	-999	-999	1	0	4	2842	-999	1	-999	0	-999	
20200339	1	13.12.2019	3	3	1	0	1	2	3	0	2	0	1	3	2	2	2	3	-999	-999	-999	-999	-999	-999	-999	-999	-999	-999	-999	-999	-999	-999	-999	-999	-999	-999	-999	-999	-999	-999	-999	-999	-999	-999	-999	-999	-999	-999	-999	-999	-999	-999	-999	-999	1	0	1	3806	-999	0	-999	0	-999	
20200339	1	13.12.2019	3	4	0	2	2	1	2	3	0	3	2	2	3	1	3	0	-999	-999	-999	-999	-999	-999	-999	-999	-999	-999	-999	-999	-999	-999	-999	-999	-999	-999	-999	-999	-999	-999	-999	-999	-999	-999	-999	-999	-999	-999	-999	-999	-999	-999	-999	-999	2	1	7	1820	-999	1	-999	1	0	
20200339	1	13.12.2019	3	5	0	3	1	0	2	0	3	3	2	2	2	3	3	1	-999	-999	-999	-999	-999	-999	-999	-999	-999	-999	-999	-999	-999	-999	-999	-999	-999	-999	-999	-999	-999	-999	-999	-999	-999	-999	-999	-999	-999	-999	-999	-999	-999	-999	-999	-999	2	2	5	1846	-999	1	-999	1	0	
20200339	1	13.12.2019	3	6	1	3	2	1	1	2	3	0	1	0	1	1	0	3	-999	-999	-999	-999	-999	-999	-999	-999	-999	-999	-999	-999	-999	-999	-999	-999	-999	-999	-999	-999	-999	-999	-999	-999	-999	-999	-999	-999	-999	-999	-999	-999	-999	-999	-999	-999	2	3	7	3919	-999	0	-999	1	-999	
20200339	1	13.12.2019	3	7	1	1	3	0	3	2	0	1	1	3	2	0	1	0	-999	-999	-999	-999	-999	-999	-999	-999	-999	-999	-999	-999	-999	-999	-999	-999	-999	-999	-999	-999	-999	-999	-999	-999	-999	-999	-999	-999	-999	-999	-999	-999	-999	-999	-999	-999	3	2	3	2324	-999	1	-999	1	0	
20200339	1	13.12.2019	3	8	2	3	0	3	3	0	1	3	0	0	2	2	2	1	-999	-999	-999	-999	-999	-999	-999	-999	-999	-999	-999	-999	-999	-999	-999	-999	-999	-999	-999	-999	-999	-999	-999	-999	-999	-999	-999	-999	-999	-999	-999	-999	-999	-999	-999	-999	2	1	2	1873	-999	1	-999	1	0	
20200339	1	13.12.2019	3	9	3	1	1	0	0	0	3	2	3	3	1	1	1	2	-999	-999	-999	-999	-999	-999	-999	-999	-999	-999	-999	-999	-999	-999	-999	-999	-999	-999	-999	-999	-999	-999	-999	-999	-999	-999	-999	-999	-999	-999	-999	-999	-999	-999	-999	-999	3	3	4	2277	-999	1	-999	1	0	
20200339	1	13.12.2019	3	10	0	1	2	3	1	1	3	2	1	3	2	1	2	2	-999	-999	-999	-999	-999	-999	-999	-999	-999	-999	-999	-999	-999	-999	-999	-999	-999	-999	-999	-999	-999	-999	-999	-999	-999	-999	-999	-999	-999	-999	-999	-999	-999	-999	-999	-999	3	2	1	2403	-999	1	-999	1	0	
20200339	1	13.12.2019	3	11	3	1	1	0	0	0	0	1	3	2	3	0	0	2	-999	-999	-999	-999	-999	-999	-999	-999	-999	-999	-999	-999	-999	-999	-999	-999	-999	-999	-999	-999	-999	-999	-999	-999	-999	-999	-999	-999	-999	-999	-999	-999	-999	-999	-999	-999	1	0	2	3282	-999	1	-999	1	0	
20200339	1	13.12.2019	3	12	1	1	2	1	1	0	2	3	3	3	0	3	0	1	-999	-999	-999	-999	-999	-999	-999	-999	-999	-999	-999	-999	-999	-999	-999	-999	-999	-999	-999	-999	-999	-999	-999	-999	-999	-999	-999	-999	-999	-999	-999	-999	-999	-999	-999	-999	1	1	5	1865	-999	0	-999	0	-999	
20200339	1	13.12.2019	3	13	1	0	2	1	0	1	2	3	2	0	3	0	3	2	-999	-999	-999	-999	-999	-999	-999	-999	-999	-999	-999	-999	-999	-999	-999	-999	-999	-999	-999	-999	-999	-999	-999	-999	-999	-999	-999	-999	-999	-999	-999	-999	-999	-999	-999	-999	2	1	2	2632	-999	1	-999	1	0	
20200339	1	13.12.2019	3	14	1	0	2	2	3	2	0	1	0	0	3	0	1	3	-999	-999	-999	-999	-999	-999	-999	-999	-999	-999	-999	-999	-999	-999	-999	-999	-999	-999	-999	-999	-999	-999	-999	-999	-999	-999	-999	-999	-999	-999	-999	-999	-999	-999	-999	-999	2	3	6	3406	-999	1	-999	0	-999	
20200339	1	13.12.2019	3	15	0	1	2	0	0	0	2	2	0	2	3	2	2	3	-999	-999	-999	-999	-999	-999	-999	-999	-999	-999	-999	-999	-999	-999	-999	-999	-999	-999	-999	-999	-999	-999	-999	-999	-999	-999	-999	-999	-999	-999	-999	-999	-999	-999	-999	-999	2	0	3	2455	-999	0	-999	0	-999	
20200339	1	13.12.2019	3	16	2	2	1	1	2	1	2	3	0	2	3	2	3	1	-999	-999	-999	-999	-999	-999	-999	-999	-999	-999	-999	-999	-999	-999	-999	-999	-999	-999	-999	-999	-999	-999	-999	-999	-999	-999	-999	-999	-999	-999	-999	-999	-999	-999	-999	-999	2	3	4	4559	-999	1	-999	1	0	
20200339	1	13.12.2019	3	17	1	3	1	1	0	3	1	2	3	1	2	1	2	3	-999	-999	-999	-999	-999	-999	-999	-999	-999	-999	-999	-999	-999	-999	-999	-999	-999	-999	-999	-999	-999	-999	-999	-999	-999	-999	-999	-999	-999	-999	-999	-999	-999	-999	-999	-999	0	2	1	2342	-999	0	-999	1	-999	
20200339	1	13.12.2019	3	18	2	0	1	1	1	0	0	0	1	2	0	3	3	2	-999	-999	-999	-999	-999	-999	-999	-999	-999	-999	-999	-999	-999	-999	-999	-999	-999	-999	-999	-999	-999	-999	-999	-999	-999	-999	-999	-999	-999	-999	-999	-999	-999	-999	-999	-999	0	3	6	2044	-999	1	-999	1	0	
20200339	1	13.12.2019	3	19	2	2	2	3	3	3	0	0	0	3	1	2	1	0	-999	-999	-999	-999	-999	-999	-999	-999	-999	-999	-999	-999	-999	-999	-999	-999	-999	-999	-999	-999	-999	-999	-999	-999	-999	-999	-999	-999	-999	-999	-999	-999	-999	-999	-999	-999	1	1	4	2471	-999	0	-999	1	-999	
20200339	1	13.12.2019	3	20	0	2	1	2	3	2	2	0	3	0	1	3	2	1	-999	-999	-999	-999	-999	-999	-999	-999	-999	-999	-999	-999	-999	-999	-999	-999	-999	-999	-999	-999	-999	-999	-999	-999	-999	-999	-999	-999	-999	-999	-999	-999	-999	-999	-999	-999	2	1	7	2229	-999	1	-999	1	0	
20200339	1	13.12.2019	3	21	0	2	3	0	1	1	3	3	3	2	1	2	3	1	-999	-999	-999	-999	-999	-999	-999	-999	-999	-999	-999	-999	-999	-999	-999	-999	-999	-999	-999	-999	-999	-999	-999	-999	-999	-999	-999	-999	-999	-999	-999	-999	-999	-999	-999	-999	3	0	3	2630	-999	0	-999	0	-999	
20200339	1	13.12.2019	3	22	3	3	0	2	1	3	3	1	1	2	2	2	1	0	-999	-999	-999	-999	-999	-999	-999	-999	-999	-999	-999	-999	-999	-999	-999	-999	-999	-999	-999	-999	-999	-999	-999	-999	-999	-999	-999	-999	-999	-999	-999	-999	-999	-999	-999	-999	2	3	2	3268	-999	1	-999	0	-999	
20200339	1	13.12.2019	3	23	2	1	1	1	2	2	1	2	3	2	3	1	0	3	-999	-999	-999	-999	-999	-999	-999	-999	-999	-999	-999	-999	-999	-999	-999	-999	-999	-999	-999	-999	-999	-999	-999	-999	-999	-999	-999	-999	-999	-999	-999	-999	-999	-999	-999	-999	2	1	7	1796	-999	1	-999	1	0	
20200339	1	13.12.2019	4	0	1	2	0	3	1	1	0	2	-999	-999	-999	-999	-999	-999	-999	-999	-999	-999	-999	-999	-999	-999	-999	-999	-999	-999	-999	-999	-999	-999	-999	-999	-999	-999	-999	-999	-999	-999	-999	-999	-999	-999	-999	-999	-999	-999	-999	-999	-999	-999	0	3	2	1832	-999	1	-999	1	0	
20200339	1	13.12.2019	4	1	1	2	0	1	3	3	0	2	-999	-999	-999	-999	-999	-999	-999	-999	-999	-999	-999	-999	-999	-999	-999	-999	-999	-999	-999	-999	-999	-999	-999	-999	-999	-999	-999	-999	-999	-999	-999	-999	-999	-999	-999	-999	-999	-999	-999	-999	-999	-999	2	2	1	2062	-999	0	-999	1	-999	
20200339	1	13.12.2019	4	2	2	0	2	3	3	2	1	0	-999	-999	-999	-999	-999	-999	-999	-999	-999	-999	-999	-999	-999	-999	-999	-999	-999	-999	-999	-999	-999	-999	-999	-999	-999	-999	-999	-999	-999	-999	-999	-999	-999	-999	-999	-999	-999	-999	-999	-999	-999	-999	2	0	1	2101	-999	1	-999	1	0	
20200339	1	13.12.2019	4	3	2	0	1	3	1	2	2	1	-999	-999	-999	-999	-999	-999	-999	-999	-999	-999	-999	-999	-999	-999	-999	-999	-999	-999	-999	-999	-999	-999	-999	-999	-999	-999	-999	-999	-999	-999	-999	-999	-999	-999	-999	-999	-999	-999	-999	-999	-999	-999	0	3	1	2027	-999	0	-999	1	-999	
20200339	1	13.12.2019	4	4	3	3	1	1	1	0	3	1	-999	-999	-999	-999	-999	-999	-999	-999	-999	-999	-999	-999	-999	-999	-999	-999	-999	-999	-999	-999	-999	-999	-999	-999	-999	-999	-999	-999	-999	-999	-999	-999	-999	-999	-999	-999	-999	-999	-999	-999	-999	-999	3	3	3	1801	-999	1	-999	1	0	
20200339	1	13.12.2019	4	5	2	0	2	1	0	1	0	0	-999	-999	-999	-999	-999	-999	-999	-999	-999	-999	-999	-999	-999	-999	-999	-999	-999	-999	-999	-999	-999	-999	-999	-999	-999	-999	-999	-999	-999	-999	-999	-999	-999	-999	-999	-999	-999	-999	-999	-999	-999	-999	2	0	1	1478	-999	1	-999	1	0	
20200339	1	13.12.2019	4	6	0	2	3	0	2	1	0	3	-999	-999	-999	-999	-999	-999	-999	-999	-999	-999	-999	-999	-999	-999	-999	-999	-999	-999	-999	-999	-999	-999	-999	-999	-999	-999	-999	-999	-999	-999	-999	-999	-999	-999	-999	-999	-999	-999	-999	-999	-999	-999	0	3	2	1994	-999	1	-999	1	0	
20200339	1	13.12.2019	4	7	2	1	0	1	0	2	3	1	-999	-999	-999	-999	-999	-999	-999	-999	-999	-999	-999	-999	-999	-999	-999	-999	-999	-999	-999	-999	-999	-999	-999	-999	-999	-999	-999	-999	-999	-999	-999	-999	-999	-999	-999	-999	-999	-999	-999	-999	-999	-999	2	1	1	2184	-999	0	-999	0	-999	
20200339	1	13.12.2019	4	8	3	3	0	2	2	2	3	1	-999	-999	-999	-999	-999	-999	-999	-999	-999	-999	-999	-999	-999	-999	-999	-999	-999	-999	-999	-999	-999	-999	-999	-999	-999	-999	-999	-999	-999	-999	-999	-999	-999	-999	-999	-999	-999	-999	-999	-999	-999	-999	0	2	1	1431	-999	1	-999	1	0	
20200339	1	13.12.2019	4	9	3	0	0	2	3	1	1	0	-999	-999	-999	-999	-999	-999	-999	-999	-999	-999	-999	-999	-999	-999	-999	-999	-999	-999	-999	-999	-999	-999	-999	-999	-999	-999	-999	-999	-999	-999	-999	-999	-999	-999	-999	-999	-999	-999	-999	-999	-999	-999	2	1	3	2012	-999	0	-999	1	-999	
20200339	1	13.12.2019	4	10	2	1	1	3	3	2	1	1	-999	-999	-999	-999	-999	-999	-999	-999	-999	-999	-999	-999	-999	-999	-999	-999	-999	-999	-999	-999	-999	-999	-999	-999	-999	-999	-999	-999	-999	-999	-999	-999	-999	-999	-999	-999	-999	-999	-999	-999	-999	-999	0	0	3	1905	-999	0	-999	1	-999	
20200339	1	13.12.2019	4	11	0	3	3	3	3	1	1	1	-999	-999	-999	-999	-999	-999	-999	-999	-999	-999	-999	-999	-999	-999	-999	-999	-999	-999	-999	-999	-999	-999	-999	-999	-999	-999	-999	-999	-999	-999	-999	-999	-999	-999	-999	-999	-999	-999	-999	-999	-999	-999	3	1	4	1675	-999	1	-999	1	0	
20200339	1	13.12.2019	4	12	0	3	1	3	3	0	3	3	-999	-999	-999	-999	-999	-999	-999	-999	-999	-999	-999	-999	-999	-999	-999	-999	-999	-999	-999	-999	-999	-999	-999	-999	-999	-999	-999	-999	-999	-999	-999	-999	-999	-999	-999	-999	-999	-999	-999	-999	-999	-999	1	2	3	1807	-999	0	-999	1	-999	
20200339	1	13.12.2019	4	13	2	2	1	1	0	3	2	3	-999	-999	-999	-999	-999	-999	-999	-999	-999	-999	-999	-999	-999	-999	-999	-999	-999	-999	-999	-999	-999	-999	-999	-999	-999	-999	-999	-999	-999	-999	-999	-999	-999	-999	-999	-999	-999	-999	-999	-999	-999	-999	2	2	3	2066	-999	1	-999	1	0	
20200339	1	13.12.2019	4	14	0	0	3	1	2	3	1	1	-999	-999	-999	-999	-999	-999	-999	-999	-999	-999	-999	-999	-999	-999	-999	-999	-999	-999	-999	-999	-999	-999	-999	-999	-999	-999	-999	-999	-999	-999	-999	-999	-999	-999	-999	-999	-999	-999	-999	-999	-999	-999	0	0	1	2368	-999	0	-999	0	-999	
20200339	1	13.12.2019	4	15	1	0	2	1	0	2	1	2	-999	-999	-999	-999	-999	-999	-999	-999	-999	-999	-999	-999	-999	-999	-999	-999	-999	-999	-999	-999	-999	-999	-999	-999	-999	-999	-999	-999	-999	-999	-999	-999	-999	-999	-999	-999	-999	-999	-999	-999	-999	-999	1	1	1	2927	-999	0	-999	1	-999	
20200339	1	13.12.2019	4	16	0	1	0	3	2	0	2	3	-999	-999	-999	-999	-999	-999	-999	-999	-999	-999	-999	-999	-999	-999	-999	-999	-999	-999	-999	-999	-999	-999	-999	-999	-999	-999	-999	-999	-999	-999	-999	-999	-999	-999	-999	-999	-999	-999	-999	-999	-999	-999	0	3	1	1979	-999	1	-999	1	0	
20200339	1	13.12.2019	4	17	1	2	2	2	0	2	3	0	-999	-999	-999	-999	-999	-999	-999	-999	-999	-999	-999	-999	-999	-999	-999	-999	-999	-999	-999	-999	-999	-999	-999	-999	-999	-999	-999	-999	-999	-999	-999	-999	-999	-999	-999	-999	-999	-999	-999	-999	-999	-999	0	1	2	1987	-999	0	-999	1	-999	
20200339	1	13.12.2019	4	18	2	1	2	0	3	1	2	3	-999	-999	-999	-999	-999	-999	-999	-999	-999	-999	-999	-999	-999	-999	-999	-999	-999	-999	-999	-999	-999	-999	-999	-999	-999	-999	-999	-999	-999	-999	-999	-999	-999	-999	-999	-999	-999	-999	-999	-999	-999	-999	1	3	2	1994	-999	0	-999	1	-999	
20200339	1	13.12.2019	4	19	3	1	2	1	3	0	0	1	-999	-999	-999	-999	-999	-999	-999	-999	-999	-999	-999	-999	-999	-999	-999	-999	-999	-999	-999	-999	-999	-999	-999	-999	-999	-999	-999	-999	-999	-999	-999	-999	-999	-999	-999	-999	-999	-999	-999	-999	-999	-999	3	1	2	1777	-999	1	-999	1	0	
20200339	1	13.12.2019	4	20	2	1	0	0	3	2	1	0	-999	-999	-999	-999	-999	-999	-999	-999	-999	-999	-999	-999	-999	-999	-999	-999	-999	-999	-999	-999	-999	-999	-999	-999	-999	-999	-999	-999	-999	-999	-999	-999	-999	-999	-999	-999	-999	-999	-999	-999	-999	-999	0	3	2	1921	-999	0	-999	1	-999	
20200339	1	13.12.2019	4	21	2	0	1	3	1	0	0	3	-999	-999	-999	-999	-999	-999	-999	-999	-999	-999	-999	-999	-999	-999	-999	-999	-999	-999	-999	-999	-999	-999	-999	-999	-999	-999	-999	-999	-999	-999	-999	-999	-999	-999	-999	-999	-999	-999	-999	-999	-999	-999	2	0	1	2088	-999	1	-999	1	0	
20200339	1	13.12.2019	4	22	2	3	1	2	3	1	3	0	-999	-999	-999	-999	-999	-999	-999	-999	-999	-999	-999	-999	-999	-999	-999	-999	-999	-999	-999	-999	-999	-999	-999	-999	-999	-999	-999	-999	-999	-999	-999	-999	-999	-999	-999	-999	-999	-999	-999	-999	-999	-999	2	1	3	1934	-999	0	-999	1	-999	
20200339	1	13.12.2019	4	23	2	1	1	2	2	0	0	2	-999	-999	-999	-999	-999	-999	-999	-999	-999	-999	-999	-999	-999	-999	-999	-999	-999	-999	-999	-999	-999	-999	-999	-999	-999	-999	-999	-999	-999	-999	-999	-999	-999	-999	-999	-999	-999	-999	-999	-999	-999	-999	2	1	1	1622	-999	1	-999	1	0	
